Variable Angle Spectroscopic Ellipsometric (VASE) Data
Wavelength (nm)	Psi (65.00, 70.00, 75.00°)	Delta (65.00, 70.00, 75.00°)									Model	
241.143387	37.147457	110.128212	37.379337	111.925301	29.618242	162.697876	30.017576	165.831787	33.069111	250.917770	33.681866	252.741486	
242.734039	35.235432	126.981956	35.634144	128.923019	30.767029	195.815536	31.030731	199.174683	39.167389	263.696808	39.414665	264.793396	
244.324677	34.128555	148.891571	34.470695	150.306656	33.728592	221.996979	34.168468	225.311646	45.311069	263.671326	45.838425	263.043091	
245.915375	34.106899	172.783340	34.220139	173.863632	37.554043	238.228104	38.137276	240.555756	56.327209	246.337753	58.043678	242.184204	
247.506073	34.999935	195.232712	35.093166	196.440857	42.196873	242.704254	42.840454	243.277374	72.205322	140.526855	68.845573	127.106651	
249.096832	36.784756	213.334061	36.970039	214.663986	48.535404	231.533890	49.572922	229.217316	53.536217	80.269295	51.944412	79.370728	
250.687576	39.508472	224.211227	39.664841	225.580658	57.595840	190.857346	58.133324	180.463608	45.996216	65.682091	45.342300	66.438553	
252.278351	42.825157	226.067062	43.288567	226.119827	55.299389	122.583977	53.704102	116.133995	42.419426	62.231476	42.068951	64.132240	
253.869095	47.773338	212.785431	48.158047	211.452805	48.097038	91.727333	46.894894	90.673096	39.979225	66.917740	39.710670	69.452194	
255.459930	52.399925	178.532684	52.479271	174.173813	43.512627	82.065544	43.032124	83.092026	37.211418	78.762726	37.164295	81.285172	
257.050751	51.180138	133.066177	50.444351	130.567001	40.566616	83.124519	40.598969	85.320358	33.922607	97.504845	33.873665	100.279266	
258.641602	46.883423	108.005966	46.052456	107.659897	38.729420	91.560570	38.639847	94.538353	29.854324	125.212914	30.026712	128.821854	
260.232483	43.342365	99.085030	42.921448	100.339737	36.712120	106.476433	36.732170	109.588646	27.473810	165.367554	27.675829	168.306503	
261.823395	41.004791	100.379417	40.864216	102.514252	34.976986	126.803551	34.895958	130.153595	29.003471	206.599533	29.403811	209.503616	
263.414246	39.392925	108.481987	39.381992	111.056679	33.666908	152.333344	33.605610	155.566223	33.115746	237.648560	33.526077	240.044189	
265.005219	38.039040	122.199883	38.206657	124.173569	33.243618	180.045700	33.532677	183.301712	37.220684	256.948181	37.490265	258.985291	
266.596130	36.951694	138.586777	37.296047	140.708084	34.744431	206.114487	34.821381	209.097260	40.757271	266.831848	40.920025	268.105011	
268.187073	36.827991	158.432343	36.755699	159.553238	36.749397	226.632828	36.923630	229.531830	44.269241	266.851013	44.667881	267.158264	
269.778046	36.807854	178.113525	36.725060	179.269714	39.075466	240.561523	39.324638	243.038193	49.765831	255.492294	50.552670	253.178711	
271.369110	37.111885	196.901428	37.254490	198.104324	41.796410	247.161911	42.006653	248.532562	60.215935	218.295563	61.411503	210.332169	
272.960052	38.300083	213.266998	38.274246	214.308685	45.072193	244.279556	45.462795	244.057053	62.164143	129.209946	59.971054	122.736794	
274.551117	39.851650	224.883408	39.697361	226.340836	50.015644	228.701950	50.491211	225.203262	51.628448	87.031013	50.471313	85.921860	
276.142151	41.590675	231.819702	41.560295	232.669739	55.672024	190.040375	55.734142	182.575317	46.205845	70.742363	45.729618	71.691437	
277.733215	43.943893	231.087631	44.091496	231.374191	54.570930	135.989853	53.569805	130.593918	43.305813	66.244415	43.112041	67.428444	
279.324310	47.424332	220.186798	47.566639	219.599976	49.459549	104.174980	48.352577	101.980453	41.174503	68.099777	41.200363	69.645775	
280.915436	51.291237	195.401688	51.347733	193.378906	45.168190	89.771645	44.700466	89.817390	39.320801	75.035927	39.287270	76.730492	
282.506470	52.360661	157.808640	52.093597	155.924118	42.367451	85.751839	42.254208	87.026901	37.080627	86.398872	36.965836	88.353195	
284.097595	49.435795	126.842117	48.984875	126.118088	40.261345	88.856010	40.340557	90.449875	34.093361	102.668747	33.994076	105.146568	
285.688751	46.074482	109.881889	45.500515	110.471657	38.704788	96.773895	38.522587	98.501038	30.302166	126.317070	30.500631	128.447540	
287.279877	42.722118	103.454422	42.806259	104.869156	36.647343	108.465446	36.573399	110.482315	27.279266	157.588547	27.538315	159.240570	
288.871094	40.641109	104.698143	40.722313	105.911781	34.600533	124.253952	34.471172	126.142441	26.764069	193.217133	26.910961	194.255249	
290.462280	38.918709	109.869331	38.953445	111.515869	32.799076	143.263657	32.443550	145.248123	28.902611	224.469299	28.909779	225.310501	
292.053467	37.089123	119.527122	37.327316	120.417519	31.032646	165.315201	30.951063	167.026382	32.003258	246.942490	31.978222	248.189819	
293.644653	35.625420	131.183472	35.802662	131.844482	30.471201	187.746368	30.454536	189.689850	34.809158	262.475494	34.984249	263.717346	
295.235840	33.929428	144.206696	34.439476	145.244064	30.916197	208.946915	31.062494	210.838852	37.509384	-86.802444	37.719925	-86.577446	
296.827087	33.104309	159.689362	33.362812	160.059982	32.347897	226.186829	32.494873	228.646057	40.384968	-82.354073	40.468712	-81.902374	
298.418304	32.545227	175.742874	32.710491	175.607193	34.232018	240.180115	34.392990	242.390884	43.748554	-82.336380	43.839775	-82.269623	
300.009583	32.469719	190.741318	32.576168	191.047592	36.596779	250.124573	36.571175	251.978714	48.764297	-89.010063	48.918247	-88.500038	
301.600891	32.812408	205.776581	32.973137	205.512161	38.820599	255.758621	39.081802	257.358154	57.194130	257.389374	57.697533	256.674957	
303.192108	33.956806	218.208328	33.850750	218.248184	41.888660	257.547577	42.223301	258.156555	70.913345	221.641113	71.846405	215.824112	
304.783386	35.342518	228.635483	35.147789	228.684418	45.970150	253.030991	46.571281	253.387848	70.789619	125.570374	69.772354	122.187576	
306.374756	36.969204	235.530457	36.851254	236.361328	52.332886	241.793961	52.944958	240.587845	57.593327	88.128754	56.891117	89.189255	
307.966034	39.203003	239.346298	39.041866	240.794159	60.233967	215.701523	61.274361	212.515945	49.549824	74.661430	49.238113	75.763390	
309.557434	42.219563	240.271149	41.922153	241.303223	65.035736	166.370972	64.644257	161.011703	44.813683	68.269203	44.721245	69.295303	
311.148682	45.648403	236.411102	45.804012	236.760544	59.071358	122.157387	57.996918	119.793869	41.820061	65.867744	41.711510	67.154396	
312.740051	50.772938	224.801636	50.916592	225.042419	51.896301	100.069183	50.789532	100.029083	39.232922	66.878822	39.338417	68.145378	
314.331390	56.431988	202.552155	56.447693	202.353134	46.022690	89.665054	45.714661	90.548363	37.033806	70.239868	37.118362	71.624161	
315.922760	59.349373	168.722733	58.695129	168.115982	42.598160	85.535782	42.183426	86.730667	34.908974	76.018120	34.754688	77.332466	
317.514130	55.760857	136.782455	55.281929	136.831482	39.445324	85.085953	39.525787	86.717873	31.727934	83.115486	32.047527	85.326508	
319.105530	50.433041	116.971947	50.025185	117.931870	37.205173	87.762642	37.299438	89.566673	28.780039	94.880020	28.880318	95.986748	
320.696838	45.822491	107.052223	45.553089	108.128662	34.959770	93.363449	35.240101	94.778893	25.107407	109.000053	25.284117	110.136391	
322.288269	42.144268	102.263367	42.170887	103.993309	33.202236	100.060493	33.204182	102.137390	21.063686	129.279938	21.601551	129.210709	
323.879700	39.539536	102.355392	39.601849	103.686577	30.975393	110.191147	31.141792	111.613846	18.371824	154.939056	18.713146	154.768036	
325.471130	37.168579	105.065666	37.559093	106.181938	28.975351	122.470886	29.095234	123.292992	18.019585	185.851639	17.880541	185.360947	
327.062531	35.788536	109.529182	35.843739	110.860832	27.140162	136.420898	27.209219	137.262009	19.676199	214.649506	19.546490	214.199417	
328.653900	34.355560	116.097382	34.340076	117.335464	25.797226	152.556580	25.724483	153.408340	23.255816	235.836197	22.739004	236.433075	
330.245361	32.758629	124.204147	32.996799	125.350243	24.780277	170.323349	24.915512	171.141632	26.516117	252.199203	26.315886	252.497299	
331.836761	31.730024	134.449066	31.811407	134.709564	25.225245	188.800949	24.962912	189.279556	29.772287	263.446167	29.691069	264.115784	
333.428253	30.610970	145.243622	30.816792	145.221695	26.193850	205.628189	25.844204	206.417496	32.779106	-88.191231	32.710621	-87.508011	
335.019684	29.766323	157.337112	30.067341	156.646805	27.690060	220.183945	27.356228	221.521973	35.655949	-82.242790	35.439075	-81.730476	
336.611145	29.501589	169.483780	29.620901	168.668594	29.513157	233.429459	29.243450	234.167908	38.314610	-78.939484	38.053291	-78.280098	
338.202637	29.435137	181.419968	29.519686	180.891418	31.358402	243.034607	31.308281	244.340637	40.881832	-77.801010	40.819309	-77.155960	
339.794067	30.044569	193.137848	29.775686	192.879318	33.770630	251.042511	33.451981	252.165649	44.009827	-79.437767	44.129738	-78.596130	
341.385559	30.640011	204.597916	30.368282	204.219833	35.674713	256.445496	35.672863	257.740479	48.325123	-83.464211	48.593723	-83.116730	
342.976990	31.732002	215.592957	31.254372	214.568466	37.899200	260.153198	38.054943	261.048584	54.972595	267.625092	55.164696	268.187836	
344.568481	32.974892	224.071945	32.386330	223.669922	40.668083	260.679077	40.768997	261.912476	64.966797	251.770538	65.084915	251.702057	
346.159973	34.087952	230.283798	33.729614	231.336075	43.787659	258.869873	44.084553	259.927582	76.891319	203.473907	76.804398	206.204422	
347.751465	35.761082	236.257858	35.276596	237.409378	48.084003	253.331406	48.378452	254.305389	72.517174	119.476379	73.041306	123.469826	
349.342926	37.562618	240.668533	37.055584	241.715546	53.440479	242.056198	54.049511	243.396423	60.857136	92.940552	61.596970	94.356689	
350.934387	39.402519	242.620819	39.137299	244.016174	60.612526	222.462494	60.934689	223.348419	52.587814	79.524223	53.506474	81.317314	
352.525909	42.190865	241.935165	41.637154	243.950684	65.505585	186.227478	66.146782	187.831894	47.988247	72.439529	48.279518	73.814507	
354.117371	45.239380	238.809036	44.703957	240.952148	63.915676	144.378616	64.350800	145.957642	44.547184	68.093269	44.796230	69.610397	
355.708954	48.568401	232.188293	48.460888	234.097412	57.783623	117.282753	58.029678	118.611320	42.024670	67.299805	42.310169	67.819153	
357.300415	52.732086	220.790207	52.796364	221.894592	51.859016	102.398087	52.055779	103.413734	40.140659	67.032097	40.364132	67.941895	
358.891937	56.710335	203.543472	56.851292	202.482056	47.903923	95.517952	47.544510	94.765015	38.699081	68.987816	38.671650	69.685387	
360.483459	58.637093	176.555923	58.639252	176.396118	44.219292	90.496933	44.253071	90.130714	36.934998	72.111061	37.039822	72.904655	
362.074890	55.973839	148.968216	56.884598	150.491714	41.941647	87.748337	41.779751	88.342880	34.821548	77.245613	35.322342	77.571014	
363.666443	52.908314	129.970810	53.061989	131.259384	39.721680	88.566376	39.799709	88.762634	33.200886	83.513931	33.400898	83.749626	
365.257965	48.829006	118.165298	49.091099	118.923508	38.493797	90.011093	38.079380	90.997200	30.965317	90.313126	31.181402	91.600296	
366.849457	46.183708	111.959534	45.725182	111.631180	36.739571	93.977875	36.460751	94.795578	28.700497	99.585030	28.618963	101.399841	
368.441010	43.639767	107.734550	43.017361	107.918419	34.970318	98.494034	34.840427	100.002525	25.763700	110.793266	25.754988	113.592766	
370.032501	41.336926	106.845734	40.818233	106.842834	33.042397	105.161957	33.162922	106.534195	22.802729	125.908218	22.790672	128.831909	
371.623993	39.275879	107.925873	38.966259	107.780388	31.344397	113.178360	31.414001	114.363815	20.072485	145.330872	20.149441	147.822693	
373.215515	37.376640	110.640289	37.338291	110.303345	29.996708	122.114548	29.622625	123.501732	18.060843	167.904312	18.450241	170.498978	
374.806946	35.865574	114.203667	35.853199	114.114868	27.873875	132.189789	27.862080	133.973145	18.005995	193.035339	18.207836	194.717606	
376.398499	34.148983	118.287567	34.463531	119.009521	26.399055	144.643127	26.245720	145.770844	19.028158	217.844177	19.398632	216.934891	
377.990021	32.936596	124.642197	33.148182	124.841705	24.630478	157.312592	24.914663	158.771347	21.233767	235.335922	21.506302	235.083710	
379.581451	31.817347	132.079132	31.905464	131.503586	24.062464	171.675568	24.007519	172.652985	23.982279	249.409698	23.974730	249.217133	
381.173004	30.599699	139.038498	30.748362	138.906494	23.494858	185.693573	23.619286	186.870148	26.301626	260.817841	26.452288	260.167145	
382.764465	29.530401	147.013168	29.701105	146.961395	23.559874	199.832748	23.768400	200.747177	28.588675	268.064941	28.778521	268.709595	
384.355957	28.538626	155.925552	28.794535	155.566788	24.439041	212.508331	24.394012	213.676727	30.871849	-85.071815	30.911636	-84.603516	
385.947418	28.000053	164.870926	28.061438	164.595840	25.567556	224.593491	25.386150	225.267548	32.784637	-80.160446	32.872849	-79.411041	
387.539001	27.752436	174.159256	27.530941	173.893036	26.608965	233.940826	26.626455	235.368011	34.617043	-76.107643	34.717014	-75.484917	
389.130463	27.154774	183.642563	27.223377	183.275330	28.285263	242.689423	28.016758	243.991531	36.527496	-72.987984	36.519619	-72.690475	
390.721863	27.118111	192.992676	27.146746	192.548172	29.586529	249.954376	29.491541	251.233139	38.492451	-71.675369	38.376137	-70.960281	
392.313446	27.456993	201.959595	27.296137	201.524216	31.149057	256.347961	31.018480	257.207214	40.412243	-70.603683	40.408661	-70.279900	
393.904877	27.879511	209.871826	27.656004	210.037491	32.688774	260.235046	32.593922	262.012054	42.727734	-71.639091	42.778656	-70.677979	
395.496307	28.525164	218.192474	28.204458	217.958435	34.128803	264.293671	34.239697	265.718140	45.536640	-72.614609	45.708298	-72.217812	
397.087830	29.147011	225.299438	28.918419	225.194565	35.924110	266.769806	36.001419	268.360901	49.323280	-75.317039	49.507652	-74.995239	
398.679230	29.858961	231.114502	29.778215	231.684387	38.047474	268.472687	37.949696	269.938141	54.336281	-79.665016	54.600456	-79.159332	
400.270752	31.181023	237.200760	30.771437	237.390045	40.070461	268.931519	40.185303	-89.592842	60.942478	-85.369034	61.518951	-85.052292	
401.862183	32.002403	241.921326	31.895517	242.284622	42.448536	268.006409	42.845936	269.675537	70.272346	266.181244	70.735733	266.007965	
403.453552	33.419777	245.411835	33.160114	246.344330	45.619133	266.229248	46.115074	267.578796	81.780174	244.464935	81.866875	243.676758	
405.045044	34.709808	248.870041	34.588978	249.539001	49.901646	263.004456	50.224110	263.819092	83.321136	117.893066	83.249779	120.170044	
406.636414	36.774998	250.638321	36.221897	251.823700	54.692097	257.098206	55.425934	257.795502	72.446991	92.353065	72.364670	92.558716	
408.227905	38.387913	252.331757	38.117882	253.131882	60.920174	247.692825	61.871632	248.093018	63.111694	82.318596	63.200726	83.175217	
409.819275	40.501659	252.633316	40.356537	253.362274	68.092239	231.220383	69.150047	230.884598	56.038609	76.393417	56.269192	77.222618	
411.410706	43.216068	251.003220	43.040302	252.360001	74.292374	199.199081	74.876617	196.986908	51.081646	72.338455	51.110271	72.992737	
413.002106	46.328823	248.692062	46.287960	249.877380	73.873497	153.915314	74.056030	150.609299	47.003391	69.033150	47.214340	70.012794	
414.593414	50.117718	243.970764	50.211620	245.493805	68.079849	123.739281	67.819412	121.654900	43.938408	67.232239	44.180172	68.055687	
416.184753	54.475712	236.985794	54.848595	238.450241	61.160088	106.616341	60.917027	106.898369	41.735680	66.255280	41.718430	66.965538	
417.776215	60.110321	226.040802	59.984657	227.348160	55.247295	98.662567	54.979675	98.347778	39.437099	65.700272	39.625977	66.621155	
419.367615	64.696922	208.926559	64.789871	209.954636	50.281212	92.516251	50.183651	92.932785	37.689190	65.965286	37.759781	66.926651	
420.958984	67.004326	182.798264	67.496132	185.080353	46.512398	88.980087	46.345161	89.451355	35.930370	66.990883	36.017410	67.808197	
422.550293	66.476822	156.841354	66.505928	158.206436	43.215698	86.380760	43.233627	87.345139	34.100502	68.673012	34.323498	69.211838	
424.141602	62.121449	136.877472	62.579159	137.514786	40.583691	85.753319	40.649906	86.308044	32.356979	70.322388	32.620411	71.102020	
425.732971	57.562710	122.393044	57.663795	124.033867	38.395947	85.274353	38.439377	86.150063	30.658375	72.366669	30.863087	73.460213	
427.324219	52.799908	113.979469	52.945835	115.448700	36.282333	86.047516	36.486893	86.743881	28.742706	75.312347	29.016369	76.284630	
428.915527	48.557735	108.960297	48.828190	109.941925	34.569572	87.297760	34.707058	88.001572	26.780649	78.284607	27.052675	79.593788	
430.506836	45.246029	105.528397	45.353497	106.480942	32.990837	89.243134	33.037563	89.863342	24.758854	82.557587	24.952753	83.431572	
432.098053	42.134235	103.265358	42.440655	104.487167	31.294512	91.460793	31.433205	92.291801	22.405737	87.179863	22.706701	87.879807	
433.689392	39.847485	102.138618	39.981285	103.617134	29.856304	94.488884	29.861532	95.269753	20.062172	92.268738	20.316006	93.083206	
435.280609	37.410305	102.488693	37.876106	103.653267	28.186888	98.249626	28.301682	98.796539	17.439989	98.171738	17.800192	99.290131	
436.871826	35.683735	103.091263	36.042553	104.448708	26.701710	102.098328	26.741962	102.889565	14.735473	106.328987	15.203566	106.942642	
438.463135	34.025429	104.928070	34.415936	105.900276	24.940073	107.050194	25.179737	107.584343	11.992144	116.979523	12.611724	116.845993	
440.054291	32.598377	107.033752	32.947544	107.933121	23.241838	112.304024	23.622065	112.933815	9.659832	131.034042	10.186593	130.455093	
441.645599	31.268389	109.786362	31.600983	110.493156	21.830448	118.829323	22.085520	119.011292	7.901120	153.105392	8.233585	150.014236	
443.236755	29.909786	112.938507	30.350817	113.540047	20.326115	125.531258	20.598358	125.903160	6.977967	180.313156	7.253491	176.578354	
444.827881	28.812792	116.467033	29.179548	117.045410	19.079107	133.985748	19.200161	133.704102	7.608115	208.099197	7.644115	204.785904	
446.419098	27.848024	120.415573	28.076643	120.988899	17.661642	141.863968	17.942459	142.493225	9.270391	229.677048	9.175743	227.020081	
448.010193	26.525661	125.036682	27.037666	125.354324	16.723671	152.567902	16.886660	152.290909	11.526187	244.379669	11.303417	242.427795	
449.601318	25.742500	130.128571	26.062685	130.129486	15.922373	163.428345	16.096926	163.009247	14.040632	254.577377	13.649803	253.279968	
451.192627	24.873558	135.165451	25.155928	135.301773	15.484857	174.634262	15.629304	174.399231	16.276165	261.524567	16.021795	261.367920	
452.783600	24.022684	140.885971	24.325207	140.853455	15.546693	186.762924	15.517283	186.048477	18.591242	267.778046	18.324543	267.715729	
454.374695	23.210655	147.137634	23.580173	146.764160	15.776982	197.772842	15.760998	197.476135	20.843410	-86.803688	20.514849	-87.105408	
455.965820	22.774666	153.787231	22.932306	153.001785	16.340631	208.321869	16.327301	208.249451	22.812433	-82.755661	22.575457	-82.770866	
457.556793	22.093765	160.385574	22.393389	159.522202	17.395029	218.119064	17.160130	218.086731	24.694368	-79.264481	24.505026	-79.086258	
459.147858	21.825897	167.068802	21.974276	166.268402	18.436977	226.903900	18.195404	226.875107	26.562799	-76.430153	26.312216	-75.929993	
460.738922	21.416161	174.073410	21.683805	173.168091	19.701496	234.312332	19.372463	234.624527	28.155561	-73.584358	28.011442	-73.224342	
462.329987	21.469349	181.323868	21.527590	180.138885	20.928862	241.554016	20.640953	241.414703	29.841295	-71.363808	29.621714	-70.917679	
463.920990	21.524357	188.128845	21.507402	187.091980	22.177145	246.656845	21.962631	247.349594	31.457113	-69.540688	31.165272	-68.975693	
465.511963	21.584221	194.717453	21.620855	193.939392	23.535601	251.915222	23.310881	252.533066	32.819138	-67.712929	32.667404	-67.375465	
467.102966	22.045439	201.431351	21.861877	200.599960	24.752548	255.957138	24.669195	257.056763	34.242897	-66.330925	34.156590	-66.102242	
468.693909	22.440481	207.859253	22.221340	207.003525	26.095203	259.700531	26.029228	260.996246	35.760899	-65.881081	35.664959	-65.147057	
470.284821	22.938097	214.028015	22.688299	213.095688	27.550938	263.474945	27.389793	264.412170	37.355808	-65.262154	37.229820	-64.504501	
471.875641	23.360312	219.662521	23.250994	218.836716	28.863604	266.257385	28.755377	267.351044	38.992622	-64.828545	38.894833	-64.170975	
473.466614	24.120798	224.668457	23.898232	224.202499	30.416176	268.868011	30.136078	269.848358	40.834164	-64.912262	40.712753	-64.142296	
475.057373	24.848940	229.752640	24.619768	229.178146	31.651421	-89.189758	31.546246	-88.071373	42.785126	-65.220741	42.746613	-64.410370	
476.648285	25.679808	234.094574	25.407520	233.759186	33.092087	-87.365303	33.005653	-86.391205	45.127781	-65.640564	45.073837	-64.958344	
478.239166	26.592703	237.786011	26.255657	237.945999	34.612900	-86.243240	34.539158	-85.101654	47.978649	-66.690498	47.787766	-65.752838	
479.829926	27.531425	241.552750	27.161266	241.743149	36.194885	-85.404419	36.178009	-84.199112	51.074039	-67.537392	50.999645	-66.731003	
481.420837	28.373528	244.640457	28.124403	245.156326	37.804367	-84.736816	37.960621	-83.685638	55.029644	-68.524757	54.835194	-67.775848	
483.011627	29.427921	248.267334	29.148033	248.190018	39.813793	-84.536026	39.933502	-83.569061	59.658691	-68.923538	59.421295	-68.663361	
484.602356	30.555593	250.387955	30.238821	250.848480	42.239033	-84.960220	42.153839	-83.862907	65.268074	-69.551399	64.856506	-68.927628	
486.193115	31.652956	252.854828	31.406845	253.132996	44.507835	-85.958679	44.689999	-84.588547	71.319862	-68.617691	71.138107	-67.416367	
487.783783	32.845795	254.344086	32.666058	255.041687	47.419231	-87.025780	47.622574	-85.779442	77.969810	-62.118122	77.989113	-60.279106	
489.374451	34.284885	255.604355	34.035149	256.569489	50.713116	-89.033157	51.044422	-87.491302	84.075005	-28.968422	83.944992	-27.731087	
490.965027	35.806515	256.840729	35.537518	257.706299	54.706875	268.977936	55.054329	-89.823944	82.468506	43.029182	82.584534	41.565094	
492.555847	37.492416	257.429962	37.202377	258.436340	59.299606	265.746948	59.744526	267.024353	75.950073	62.265594	76.152992	62.104019	
494.146332	39.352226	257.773682	39.064114	258.735687	64.816154	261.250427	65.166466	262.615417	69.355400	66.254959	69.633568	66.886208	
495.737061	41.479618	257.617432	41.164978	258.569885	70.871391	254.352753	71.272942	255.804504	63.612041	66.771004	63.832954	67.790520	
497.327698	43.798512	256.604675	43.552334	257.888092	77.257515	241.804077	77.745399	242.818085	58.698479	66.810448	58.877392	67.390144	
498.918060	46.587742	255.336243	46.278740	256.613708	82.778793	206.378845	83.175224	207.334305	54.493633	65.523125	54.712040	66.527473	
500.508789	49.570831	253.087158	49.399071	254.626129	82.232483	144.525757	82.418030	141.263138	51.036705	64.662880	51.222389	65.553490	
502.099304	53.354263	250.444748	52.957329	251.730667	76.955864	113.757523	76.659828	112.853973	48.083660	63.662502	48.287827	64.634979	
503.689758	56.993538	245.838287	56.970451	247.594940	70.684700	102.447868	70.420044	101.729515	45.604095	63.152199	45.796501	63.854469	
505.280182	61.666306	239.937424	61.389450	241.625961	64.904999	95.558983	64.677261	95.604546	43.464520	62.550465	43.653061	63.251732	
506.870544	66.268990	230.531372	66.023392	232.737991	59.737282	91.189819	59.633228	91.548370	41.613312	62.145077	41.779556	62.843391	
508.460938	70.440475	216.208572	70.398903	219.029938	55.272419	88.220566	55.288551	88.611870	40.002308	61.952477	40.112949	62.633152	
510.051514	73.493996	195.331909	73.559189	198.229996	51.573582	86.009247	51.571869	86.406631	38.450546	61.711823	38.602432	62.617664	
511.641693	74.081917	169.206528	74.223953	171.875748	48.267990	84.172119	48.392372	84.746185	36.998104	61.834305	37.208080	62.789890	
513.232056	71.674026	145.759064	72.075592	148.180679	45.703671	82.820007	45.657173	83.526711	35.693111	62.180126	35.896786	63.141239	
514.822510	67.817978	130.055115	68.224838	131.807129	43.235680	82.170807	43.284081	82.684494	34.427185	62.901680	34.642120	63.662735	
516.412720	63.362862	119.595154	63.825695	121.244804	41.083111	81.672791	41.202888	82.175972	33.218456	63.365902	33.422482	64.345642	
518.003113	59.017662	112.840790	59.500153	114.251556	39.196827	81.386253	39.354607	81.968826	31.937449	64.387390	32.219635	65.182182	
519.593262	55.139004	108.098633	55.512070	109.434700	37.503510	81.336029	37.691509	82.038055	30.801203	65.442703	31.018753	66.165306	
521.183594	51.479744	104.824738	51.943592	106.023819	35.944607	81.609970	36.173862	82.363617	29.567936	66.470810	29.806726	67.289688	
522.773743	48.508011	102.567253	48.795914	103.589180	34.756199	82.310928	34.770267	82.929207	28.381283	67.705620	28.573111	68.550636	
524.363892	45.743523	101.001671	46.033298	101.877228	33.392857	83.011574	33.454807	83.721802	27.095926	69.068680	27.308727	69.945274	
525.953918	43.316177	99.763336	43.608250	100.730980	31.928720	84.120590	32.206692	84.731178	25.750704	70.748772	26.006094	71.472168	
527.543945	41.133114	99.020683	41.471214	100.047379	30.783707	85.269432	31.008692	85.950111	24.341202	72.331635	24.658632	73.132431	
529.134155	39.284927	98.569191	39.576813	99.755913	29.560694	86.850700	29.847046	87.373940	22.887966	74.234734	23.261271	74.929558	
530.724243	37.676769	98.915932	37.885803	99.806030	28.550619	88.288727	28.711178	89.000000	21.375526	76.151154	21.810850	76.869698	
532.314270	35.967663	99.399490	36.363873	100.160042	27.271008	89.974678	27.592321	90.828964	19.865871	78.254120	20.305019	78.964531	
533.904175	34.624798	99.960434	34.982441	100.789085	26.166889	92.390877	26.483904	92.864120	18.247124	80.662102	18.743155	81.232437	
535.494202	33.306095	100.744110	33.717670	101.670647	25.051222	94.919365	25.381084	95.112038	16.630836	83.228401	17.126183	83.702522	
537.084106	32.023746	102.230782	32.550018	102.786911	24.049074	97.074738	24.280806	97.582573	14.966838	85.962379	15.457019	86.420425	
538.673950	31.033516	103.350273	31.463415	104.123741	22.919956	100.080460	23.181561	100.289680	13.179529	88.910873	13.740613	89.459900	
540.263794	30.137508	104.982597	30.444799	105.669960	21.903748	103.223106	22.083456	103.251816	11.503292	92.909920	11.984555	92.943748	
541.853638	29.140644	106.889168	29.483801	107.416588	20.702797	106.585579	20.988447	106.492065	9.684901	96.522453	10.200362	97.086151	
543.443481	28.236557	108.780006	28.572067	109.356895	19.551664	110.117989	19.900131	110.039757	7.892466	102.233948	8.405259	102.289391	
545.033386	27.362616	110.997147	27.703167	111.485779	18.636148	113.673439	18.824135	113.930382	6.059092	110.505463	6.628608	109.379135	
546.622925	26.551888	113.393623	26.872389	113.799103	17.525888	118.502342	17.768450	118.205368	4.349879	123.156433	4.930596	120.246925	
548.212646	25.712852	115.875511	26.076038	116.294983	16.509062	123.495644	16.743027	122.914528	3.073573	146.564011	3.465768	139.573792	
549.802368	24.948759	118.618134	25.311983	118.971497	15.476462	128.634705	15.760951	128.110687	2.566983	187.418030	2.672740	174.965775	
551.392212	24.258291	121.500832	24.578955	121.828117	14.683005	134.427032	14.837942	133.849152	3.262983	222.779037	3.106467	214.573700	
552.981628	23.501911	124.978416	23.876938	124.863525	13.837357	140.604492	13.993020	140.176666	4.709627	241.240662	4.395654	238.007355	
554.571411	22.906496	128.321350	23.206249	128.078644	13.096896	148.194504	13.247199	147.126160	6.325936	252.447174	5.984835	250.662048	
556.160767	22.215588	131.834152	22.568569	131.471329	12.502772	155.496262	12.623806	154.689667	8.114154	259.828033	7.659788	258.514282	
557.750366	21.637512	135.176483	21.965744	135.041092	12.073606	163.794342	12.145373	162.810089	9.777023	264.627960	9.345577	264.048981	
559.339905	21.046707	138.839279	21.400396	138.785065	11.811052	172.089645	11.831577	171.359955	11.350933	268.833282	11.009569	268.314270	
560.929321	20.624979	142.836853	20.875584	142.698593	11.638429	180.483322	11.695669	180.145096	12.954016	-88.430656	12.634974	-88.193810	
562.518738	20.065506	146.897110	20.394630	146.774994	11.830042	189.062912	11.741702	188.929108	14.508482	-85.518661	14.212388	-85.215225	
564.108154	19.716038	151.070023	19.960976	151.005295	12.044239	196.843307	11.963595	197.475037	15.928805	-83.095497	15.736642	-82.602196	
565.697571	19.321743	155.274628	19.578142	155.376862	12.431374	205.437332	12.346357	205.585083	17.261616	-80.625839	17.204992	-80.265747	
567.286865	19.063536	159.807724	19.249565	159.872406	12.913688	212.534592	12.868775	213.125229	18.694981	-78.496490	18.616165	-78.149895	
568.875977	18.764420	164.676025	18.978266	164.471161	13.591069	219.479385	13.506930	220.031509	20.078985	-76.638512	19.970449	-76.217438	
570.465332	18.529781	169.596130	18.766661	169.150955	14.427992	225.882614	14.237454	226.298874	21.426538	-74.961876	21.269850	-74.442276	
572.054688	18.510742	174.946289	18.616604	173.885132	15.188478	231.656982	15.038896	231.956848	22.700115	-73.044861	22.516809	-72.806557	
573.643555	18.397884	179.758179	18.529202	178.643509	16.096724	236.726486	15.892542	237.053436	23.874941	-71.610268	23.714188	-71.297882	
575.232788	18.407541	184.474594	18.504620	183.398056	16.950462	241.124557	16.783445	241.647552	25.025261	-70.379082	24.866241	-69.906219	
576.821960	18.480045	189.355072	18.542192	188.116928	17.842922	245.485062	17.698990	245.793945	26.153379	-68.968369	25.976797	-68.625099	
578.411072	18.563755	193.917755	18.640379	192.771484	18.805809	248.939178	18.629635	249.545090	27.181742	-67.953224	27.050617	-67.449150	
580.000000	18.876013	198.616837	18.796888	197.335358	19.738665	252.278931	19.568165	252.947357	28.314226	-66.881142	28.092857	-66.374298	
581.588989	18.986450	203.025391	19.008850	201.785919	20.723179	255.466461	20.509474	256.041077	29.287018	-65.817894	29.109161	-65.397263	
583.177856	19.397589	207.344254	19.272829	206.102463	21.703396	258.161316	21.449715	258.859253	30.353634	-65.072411	30.105110	-64.515846	
584.766907	19.775270	211.434601	19.585115	210.269257	22.617245	260.572266	22.386641	261.430328	31.274914	-64.325790	31.086906	-63.728138	
586.355774	20.136829	215.169388	19.941807	214.273758	23.616249	262.986023	23.319044	263.777649	32.314148	-63.654980	32.061020	-63.032715	
587.944702	20.503580	218.998505	20.339130	218.108597	24.542650	265.216095	24.247068	265.921448	33.238800	-62.904232	33.034752	-62.428120	
589.533508	21.030479	222.637360	20.773382	221.768463	25.372192	266.967590	25.171505	267.877899	34.340733	-62.632832	34.015697	-61.913200	
591.122192	21.557230	226.051483	21.241047	225.250549	26.371698	269.040771	26.093834	269.660370	35.251301	-61.943306	35.011982	-61.486759	
592.710999	22.059164	229.441483	21.739006	228.554779	27.226732	-89.450546	27.016401	-88.719940	36.303558	-61.794033	36.032635	-61.147373	
594.299500	22.612762	232.241669	22.264458	231.682205	28.106894	-88.173676	27.942089	-87.253967	37.332291	-61.477093	37.087402	-60.893265	
595.888306	23.145679	235.207977	22.815285	234.636566	29.119833	-86.739098	28.874859	-85.933685	38.344467	-61.392570	38.187538	-60.721943	
597.476929	23.723402	237.896774	23.389540	237.420563	29.976658	-85.528847	29.818798	-84.753288	39.555870	-61.381893	39.344841	-60.630146	
599.065369	24.357431	240.470871	23.985847	240.038132	30.931536	-84.617073	30.778847	-83.707764	40.758339	-61.038902	40.572643	-60.613201	
600.653870	24.859573	242.706146	24.603399	242.493607	31.886703	-83.937767	31.760744	-82.793022	42.123249	-61.357273	41.885864	-60.664642	
602.242310	25.593878	244.883179	25.241884	244.791382	32.900238	-82.983070	32.771015	-82.005760	43.514816	-61.476498	43.301090	-60.775505	
603.830933	26.133968	246.983856	25.901640	246.936020	33.995705	-82.509521	33.817223	-81.343315	45.043190	-61.650883	44.836880	-60.933441	
605.419067	26.912943	249.118896	26.583105	248.930496	35.088474	-81.650299	34.907204	-80.803925	46.807671	-61.831635	46.512527	-61.121235	
607.007629	27.581709	250.687225	27.287842	250.779236	36.241241	-81.564972	36.050777	-80.385796	48.628090	-62.081234	48.350208	-61.315224	
608.595825	28.400045	252.261444	28.017303	252.484528	37.491436	-81.191246	37.257877	-80.087891	50.743877	-62.304996	50.371452	-61.482224	
610.184265	29.141695	254.033600	28.774071	254.049561	38.685352	-81.183739	38.540638	-79.909149	53.062485	-62.352402	52.599277	-61.575699	
611.772278	29.925276	255.212677	29.560854	255.476059	40.141014	-80.865608	39.911861	-79.848839	55.504303	-62.450798	55.053772	-61.529026	
613.360718	30.823954	256.228821	30.381620	256.766388	41.663700	-81.144066	41.387001	-79.906235	58.322098	-62.006050	57.752567	-61.244415	
614.948853	31.658976	257.744598	31.240080	257.920898	43.024086	-81.239143	42.981525	-80.080666	61.198235	-61.299149	60.701462	-60.574192	
616.536926	32.589066	258.553406	32.141197	258.940308	44.930389	-81.716721	44.713562	-80.371452	64.504745	-59.950562	63.892117	-59.285885	
618.124878	33.493340	259.209778	33.090557	259.824585	46.763233	-82.026428	46.602631	-80.778000	67.803024	-56.987881	67.288475	-56.996197	
619.712769	34.478046	260.047058	34.094620	260.573029	48.842857	-82.489891	48.669876	-81.299889	71.313957	-52.941208	70.807632	-53.039257	
621.300659	35.470871	260.863953	35.160976	261.184357	51.008835	-83.353783	50.938042	-81.937363	74.847755	-45.640556	74.281342	-46.214756	
622.888611	36.589005	261.145752	36.297749	261.656250	53.630306	-84.086372	53.429447	-82.691277	77.930336	-32.701309	77.372452	-34.457073	
624.476563	37.867096	261.265808	37.514030	261.985382	56.391571	-85.058907	56.165485	-83.564316	79.721848	-12.173539	79.451462	-15.439713	
626.064331	39.191311	261.209381	38.820011	262.167297	59.295307	-85.965874	59.165123	-84.562721	79.612350	12.630575	79.725876	8.755304	
627.652344	40.605988	261.600677	40.227406	262.196045	62.636799	-87.250298	62.443493	-85.700203	77.757828	31.748930	78.083351	29.525341	
629.240112	42.217499	260.912659	41.748272	262.063629	66.222595	-88.631248	66.006027	-87.003937	74.805702	43.920406	75.266937	42.873833	
630.827820	43.887268	260.700653	43.396221	261.759460	70.013741	-89.934845	69.847809	-88.532242	71.474350	51.252430	71.980522	50.698086	
632.415283	45.714951	260.100922	45.185101	261.269409	74.117607	267.839569	73.947098	269.582581	67.982048	55.479462	68.610481	55.266865	
634.002869	47.455517	259.573334	47.129982	260.574066	78.559967	264.141022	78.264320	266.986877	64.885574	57.799198	65.344139	57.955471	
635.590393	49.668461	258.492249	49.245014	259.646942	82.906593	258.523376	82.731018	262.414978	61.629959	59.226959	62.270985	59.523155	
637.177979	52.011292	257.182129	51.543701	258.450745	87.325554	240.094772	87.179703	246.422485	58.934650	59.987194	59.428173	60.400894	
638.765320	54.609745	255.582001	54.036358	256.932495	87.337151	120.031441	87.661240	118.479538	56.392460	60.356335	56.825302	60.844509	
640.352966	57.342743	253.381958	56.729908	255.013657	82.934753	99.237495	83.305328	97.931091	53.977589	60.565105	54.454884	61.013535	
641.940247	60.110432	251.103943	59.621059	252.577911	78.590500	93.272247	78.927994	92.931091	51.971973	60.468872	52.302959	61.010963	
643.527710	63.190903	247.271515	62.695465	249.442963	74.467964	90.784142	74.727783	90.235405	50.062435	60.109589	50.349766	60.905663	
645.114990	66.458893	243.195480	65.915894	245.319565	70.375092	88.545670	70.765793	88.329117	48.296272	60.087955	48.575413	60.744637	
646.702026	69.665024	236.737030	69.210876	239.731171	66.972992	87.010948	67.073441	86.808640	46.637043	60.149651	46.959854	60.560516	
648.289429	73.035591	229.208710	72.451897	231.879150	63.487850	85.344574	63.661926	85.523315	45.283432	59.599979	45.483356	60.376030	
649.876465	75.743523	216.706833	75.404068	220.503784	60.368267	84.150406	60.532101	84.406906	43.899658	59.558399	44.129078	60.207245	
651.463379	77.754822	198.601959	77.665817	204.092819	57.501087	82.868202	57.672974	83.425774	42.683949	59.419029	42.880836	60.065296	
653.050598	78.510139	175.862976	78.679474	182.706726	54.615532	82.071960	55.066853	82.561363	41.433380	59.336143	41.723843	59.957802	
654.637573	77.461372	153.677673	78.086098	160.642761	52.367836	81.190254	52.694668	81.803398	40.375519	59.205284	40.645775	59.889977	
656.224243	75.910042	140.329071	76.142776	142.966904	50.474403	80.661484	50.535267	81.145096	39.504837	59.265732	39.635502	59.865055	
657.811340	73.379829	130.120789	73.418060	130.567978	48.928501	80.248940	48.566429	80.581604	38.685459	59.214611	38.682735	59.884991	
659.398071	70.118149	120.422272	70.358093	122.048798	46.816422	79.631470	46.768463	80.109619	37.634933	59.240314	37.779167	59.950703	
660.984680	66.558235	114.519699	67.220886	116.033401	45.141720	79.403580	45.121674	79.726151	36.723423	59.372200	36.916893	60.062443	
662.571533	63.472660	109.768784	64.145699	111.627174	43.625126	79.016281	43.608036	79.428497	35.926392	59.577026	36.088921	60.219925	
664.158203	60.624672	107.300018	61.207413	108.293190	42.149433	78.786400	42.212002	79.214340	35.196770	59.862953	35.289501	60.422440	
665.744629	57.935211	104.673752	58.442825	105.704742	40.828575	78.658516	40.919228	79.081314	34.340973	60.151855	34.513348	60.669010	
667.331482	55.176212	102.699997	55.865799	103.656952	39.566372	78.560471	39.716419	79.027115	33.643372	60.452522	33.755451	60.958611	
668.917969	52.895836	100.987740	53.479527	102.019028	38.523277	78.778809	38.592842	79.049591	32.905788	60.796913	33.012028	61.289860	
670.504395	50.733433	99.972107	51.277245	100.702026	37.433132	78.640289	37.538029	79.146599	32.163540	61.148861	32.279076	61.661530	
672.090698	48.867535	98.736420	49.248718	99.645111	36.440903	78.891327	36.543095	79.316147	31.426859	61.570423	31.553265	62.072308	
673.677246	46.926952	98.039116	47.381248	98.804810	35.465801	79.174522	35.600101	79.556274	30.691790	61.845669	30.831514	62.520821	
675.263184	45.352184	97.369431	45.662502	98.149971	34.604969	79.469391	34.702694	79.865036	29.926258	62.372219	30.111595	63.005444	
676.849609	43.569878	96.759567	44.077755	97.656395	33.767544	79.913795	33.844109	80.240944	29.256292	62.835526	29.390568	63.525131	
678.435669	42.305553	96.435753	42.614857	97.306267	32.803112	80.305771	33.019394	80.682335	28.476337	63.462185	28.666618	64.078316	
680.021790	40.855221	96.214989	41.261276	97.085327	32.072929	80.733376	32.223614	81.187920	27.715357	64.254761	27.937641	64.663795	
681.608154	39.696476	96.437737	40.005539	96.982246	31.278942	81.524139	31.452444	81.756653	27.008095	64.567345	27.201740	65.280388	
683.194092	38.507256	96.178528	38.837994	96.987946	30.445650	81.886978	30.702579	82.387299	26.202686	65.401909	26.457724	65.926575	
684.779846	37.512901	96.799057	37.749077	97.094765	29.745377	82.785477	29.970613	83.079124	25.416985	65.855141	25.704060	66.601166	
686.365723	36.460960	96.734138	36.730240	97.296440	29.073820	83.425133	29.253571	83.831757	24.635538	66.762146	24.939396	67.303139	
687.951782	35.427670	96.778999	35.773994	97.587631	28.301105	84.331207	28.548923	84.644867	23.917757	67.249062	24.162630	68.031288	
689.537476	34.554790	97.566383	34.873947	97.963669	27.667593	85.094841	27.854704	85.518143	23.047079	68.123543	23.373089	68.784256	
691.123169	33.783569	97.723778	34.023956	98.420677	26.954910	86.270218	27.168858	86.451927	22.232975	68.965057	22.569839	69.561073	
692.708801	32.852051	98.316010	33.218739	98.955200	26.274836	87.142723	26.489725	87.446640	21.421854	69.660538	21.752241	70.360573	
694.294739	32.204708	99.018394	32.453484	99.564430	25.610575	88.267326	25.815786	88.503311	20.572039	70.411942	20.919659	71.181915	
695.880188	31.408289	99.636787	31.724369	100.245453	24.800089	89.430412	25.146126	89.622475	19.700897	71.369530	20.072105	72.023582	
697.465759	30.709448	100.340446	31.027443	100.996307	24.267969	90.486488	24.479500	90.806046	18.891701	72.162109	19.209040	72.884956	
699.051147	30.090277	101.384201	30.359623	101.814857	23.532455	91.807220	23.815250	92.055588	17.986629	73.147789	18.330574	73.764862	
700.636597	29.349102	102.184486	29.717968	102.699478	22.923187	93.040276	23.152678	93.373459	17.076180	73.866554	17.436670	74.662407	
702.221741	28.775518	103.225121	29.100187	103.648445	22.246891	94.831177	22.491577	94.761978	16.161375	74.957245	16.527834	75.576538	
703.807251	28.181589	104.200363	28.503706	104.661079	21.601528	96.003395	21.831270	96.225151	15.208524	75.601990	15.603843	76.506866	
705.392334	27.573668	105.171417	27.926933	105.735863	20.930193	97.663795	21.172022	97.766129	14.303056	76.636192	14.665640	77.452362	
706.977661	27.048569	106.544029	27.367929	106.872490	20.297611	99.369614	20.513596	99.390114	13.341960	77.585640	13.713368	78.412926	
708.562500	26.465050	107.634773	26.825581	108.069588	19.578825	100.930962	19.856636	101.101280	12.307067	78.439575	12.748323	79.387589	
710.147583	25.974516	108.885246	26.298470	109.327141	18.929815	102.969933	19.201366	102.906326	11.342937	79.425682	11.770997	80.376862	
711.732788	25.363581	110.230560	25.785543	110.644791	18.272581	104.690071	18.548401	104.812073	10.335893	80.397179	10.782342	81.380936	
713.317627	24.937296	111.921608	25.286110	112.021927	17.639606	107.185280	17.898800	106.825844	9.300050	81.225693	9.783738	82.400696	
714.902588	24.446003	113.222321	24.799341	113.458809	17.000221	108.934532	17.253469	108.957115	8.315524	82.463043	8.776107	83.438583	
716.487183	24.039423	114.957130	24.324802	114.955009	16.301554	111.607010	16.613878	111.215324	7.297541	83.476631	7.760995	84.497932	
718.072144	23.450563	116.565392	23.861895	116.511337	15.685658	113.883904	15.981335	113.612999	6.279313	83.632240	6.739307	85.586502	
719.656616	22.984346	118.164902	23.410557	118.127129	15.054467	116.780151	15.358005	116.161522	5.212036	85.099594	5.713002	86.716194	
721.241333	22.558001	119.993294	22.970381	119.803467	14.471481	119.463928	14.745718	118.876335	4.125308	85.422546	4.683015	87.912575	
722.825989	22.132994	121.801338	22.541456	121.540199	13.835274	122.464722	14.147184	121.772156	3.104265	87.146339	3.651194	89.230194	
724.410339	21.715664	123.475227	22.123831	123.337395	13.344725	125.711548	13.565299	124.865067	2.150314	88.005333	2.619273	90.809929	
725.994873	21.415113	125.263901	21.717606	125.195625	12.746819	128.532150	13.003288	128.172821	1.177558	86.913048	1.589074	93.163200	
727.579102	20.997913	127.263641	21.323111	127.114601	12.218241	132.588760	12.465009	131.711792	0.157895	72.869804	0.565983	100.493927	
729.163452	20.475908	129.136520	20.940514	129.095032	11.681720	136.236404	11.954419	135.499527	0.892413	-80.318649	0.476699	259.902893	
730.747742	20.273468	131.377289	20.570271	131.136841	11.235660	140.268417	11.476194	139.550247	1.838243	-87.503464	1.488700	268.854309	
732.332031	19.937870	133.630386	20.212807	133.239914	10.880337	144.718735	11.035274	143.874329	2.811228	-85.529037	2.499159	-88.678574	
733.915894	19.546244	135.786316	19.868702	135.403519	10.483815	149.478897	10.637007	148.474915	3.888160	-84.869415	3.501734	-87.091454	
735.499939	19.225761	138.011261	19.538406	137.628098	10.173899	153.848618	10.286669	153.349228	4.786845	-85.176613	4.495059	-85.798447	
737.083923	18.925064	139.929962	19.222553	139.912476	9.922986	159.080231	9.989619	158.480164	5.747838	-83.957794	5.477619	-84.642967	
738.667725	18.636473	142.359894	18.921827	142.255432	9.657008	164.394806	9.750845	163.837479	6.686657	-83.098022	6.448183	-83.566544	
740.251648	18.337978	144.746521	18.636845	144.656067	9.596627	169.902252	9.574530	169.377975	7.657573	-81.937958	7.405913	-82.542091	
741.835815	18.073055	147.319550	18.368237	147.112778	9.428849	175.605209	9.463768	175.044296	8.587009	-80.975204	8.349958	-81.555298	
743.419067	17.780525	149.633362	18.116896	149.621704	9.386602	181.471558	9.420375	180.764572	9.553592	-79.927216	9.278890	-80.599449	
745.002930	17.624102	152.679199	17.883268	152.182327	9.503309	187.179169	9.444423	186.470551	10.465436	-79.745415	10.192816	-79.669083	
746.586304	17.400496	155.378784	17.668127	154.789948	9.529918	192.961441	9.534378	192.086823	11.405964	-78.293304	11.090603	-78.761818	
748.170166	17.206429	158.015808	17.472027	157.442245	9.730360	198.460175	9.687344	197.551178	12.258408	-77.718811	11.972234	-77.875763	
749.753479	17.049294	161.082504	17.295641	160.133469	10.054252	203.483673	9.898976	202.807053	13.122911	-77.202873	12.836804	-77.010239	
751.336670	16.922598	163.770859	17.139416	162.859741	10.272006	208.308258	10.164209	207.816940	13.988157	-76.271706	13.684313	-76.164261	
752.920166	16.734869	166.610046	17.003819	165.616501	10.591542	213.265732	10.477576	212.556885	14.784019	-75.092903	14.514765	-75.337502	
754.503479	16.672390	169.211792	16.889235	168.397415	10.929070	217.747345	10.833222	217.013779	15.616057	-74.199760	15.327833	-74.529839	
756.086487	16.605186	172.370483	16.795942	171.196381	11.442529	221.295319	11.225484	221.186356	16.392612	-73.732796	16.123487	-73.741203	
757.669739	16.595873	175.035629	16.724148	174.008011	11.776464	225.463150	11.649195	225.082626	17.185926	-73.059189	16.902061	-72.971535	
759.252625	16.506674	177.994049	16.673920	176.824936	12.256983	229.100662	12.099271	228.713806	17.914301	-72.238861	17.663460	-72.220970	
760.835571	16.637844	180.691315	16.645226	179.641418	12.687648	232.098206	12.571415	232.096664	18.617317	-71.462685	18.408142	-71.489388	
762.418640	16.518822	183.520126	16.637987	182.450928	13.143754	235.215912	13.061746	235.248428	19.353106	-70.856667	19.136440	-70.776985	
764.001282	16.646181	186.230759	16.651936	185.246033	13.784648	237.831985	13.566601	238.185974	20.029154	-70.241203	19.848459	-70.084007	
765.584290	16.622774	189.190231	16.686760	188.021683	14.194862	240.859009	14.083210	240.928085	20.751490	-69.393486	20.544943	-69.410294	
767.166748	16.795897	191.710175	16.742044	190.770020	14.795092	243.122971	14.608662	243.489471	21.476654	-68.684692	21.225920	-68.756485	
768.749634	16.802511	194.618225	16.817263	193.487198	15.298088	245.846512	15.141047	245.887512	22.118916	-68.349327	21.892363	-68.122131	
770.332275	16.929459	197.340134	16.911819	196.167053	15.845763	247.824936	15.678297	248.135498	22.820040	-67.571152	22.544613	-67.507591	
771.914734	16.994087	199.988464	17.025082	198.804703	16.381962	249.950241	16.218815	250.246185	23.403980	-67.134583	23.183273	-66.913055	
773.497009	17.160086	202.345810	17.156300	201.396011	16.945984	251.705276	16.761248	252.231400	24.072760	-66.412323	23.809008	-66.338501	
775.079468	17.397007	205.158096	17.304768	203.937927	17.443163	253.906250	17.304615	254.102036	24.672304	-65.783546	24.422653	-65.783867	
776.661560	17.518475	207.627869	17.469696	206.426498	18.068380	255.303452	17.847870	255.866730	25.269495	-65.458328	25.024759	-65.249489	
778.243774	17.705229	209.866760	17.650284	208.859650	18.625809	257.171051	18.390360	257.534271	25.879435	-64.943497	25.616188	-64.735214	
779.826172	17.976263	212.202194	17.845715	211.235123	19.137022	258.863953	18.931461	259.111969	26.471214	-64.604202	26.197672	-64.241135	
781.408081	18.115814	214.579773	18.055111	213.550079	19.707689	260.337006	19.470472	260.605499	27.035069	-64.093727	26.769726	-63.767601	
782.989929	18.382828	217.064728	18.277712	215.804245	20.255701	261.570984	20.007238	262.021423	27.660198	-63.336842	27.333382	-63.314400	
784.571777	18.662743	219.094406	18.512741	217.996948	20.788475	262.777374	20.541557	263.365051	28.170895	-63.135658	27.889507	-62.881523	
786.154053	18.855204	221.221542	18.759567	220.128342	21.341671	264.218994	21.073494	264.641235	28.754757	-62.780636	28.439159	-62.468952	
787.735718	19.205204	223.178452	19.017269	222.196899	21.848003	265.435974	21.602617	265.853333	29.293690	-62.278141	28.982836	-62.076927	
789.317261	19.437361	225.098984	19.285208	224.203430	22.338436	266.299561	22.129105	267.005432	29.793150	-62.155670	29.521606	-61.705276	
790.899048	19.788702	226.874084	19.562815	226.148590	22.871403	267.702332	22.653160	268.100922	30.385878	-61.711918	30.056496	-61.354004	
792.480591	20.032610	228.778793	19.849371	228.032333	23.393883	268.443451	23.174767	269.142365	30.862236	-61.370850	30.588287	-61.023174	
794.061951	20.294010	230.447662	20.144335	229.855820	23.884195	269.419586	23.694235	-89.867317	31.286369	-61.088722	31.118067	-60.712620	
795.643433	20.716303	232.241852	20.447300	231.620331	24.378269	-89.698273	24.212002	-88.925652	31.826660	-60.898125	31.646999	-60.422268	
797.224609	21.047855	233.747498	20.757715	233.326309	24.912273	-88.700470	24.728258	-88.030800	32.376179	-60.542233	32.175991	-60.152122	
798.805908	21.338213	235.475540	21.075224	234.975449	25.478657	-87.556618	25.243542	-87.180511	32.977291	-60.200474	32.706299	-59.901917	
800.386780	21.673950	236.884323	21.399363	236.568176	25.973143	-86.971588	25.758112	-86.373451	33.483074	-60.089947	33.238857	-59.671642	
801.968140	21.935299	238.533218	21.730024	238.106567	26.425404	-86.126747	26.272787	-85.607651	34.052067	-59.716717	33.775181	-59.461018	
803.549072	22.297829	239.866623	22.066713	239.590958	26.982393	-85.667397	26.787781	-84.882111	34.568417	-59.612015	34.316174	-59.269882	
805.130005	22.543119	241.401169	22.409328	241.023026	27.435734	-84.894913	27.303867	-84.195335	35.142990	-59.402054	34.863304	-59.097919	
806.710815	23.039600	242.668243	22.757711	242.403778	27.978655	-83.983704	27.821671	-83.546303	35.686684	-59.374146	35.417889	-58.944874	
808.291504	23.314232	243.862869	23.111719	243.734467	28.543444	-83.682678	28.341871	-82.933914	36.408039	-59.235996	35.981331	-58.810314	
809.872620	23.711142	245.485992	23.471365	245.016571	29.020771	-82.788612	28.865341	-82.357056	36.822422	-58.786385	36.555248	-58.693729	
811.453003	24.074757	246.599518	23.836374	246.250183	29.621706	-82.420670	29.392475	-81.815376	37.356617	-58.938114	37.140736	-58.594715	
813.033752	24.553291	247.448593	24.206991	247.437134	30.026781	-81.970222	29.924444	-81.307716	38.069519	-58.825336	37.739765	-58.512562	
814.614136	24.749498	248.831360	24.583155	248.578217	30.612980	-81.592102	30.461987	-80.833443	38.636379	-58.759548	38.353867	-58.446499	
816.194336	25.229980	249.887344	24.965023	249.674454	31.151989	-81.022491	31.006090	-80.391907	39.280697	-58.701321	38.984852	-58.395699	
817.774719	25.700697	250.638733	25.352875	250.726990	31.823355	-80.630692	31.557922	-79.982422	39.916225	-58.916107	39.634754	-58.359158	
819.354797	26.060041	251.603668	25.746761	251.736481	32.217712	-80.554649	32.118355	-79.604477	40.637409	-58.797184	40.305317	-58.335640	
820.934875	26.431017	252.763290	26.146992	252.703888	32.985493	-79.965691	32.688606	-79.257484	41.355331	-58.835663	40.998669	-58.323753	
822.515137	26.902269	253.684814	26.553921	253.630005	33.452618	-79.793877	33.269924	-78.940979	41.997726	-58.788845	41.717007	-58.321941	
824.094910	27.228897	254.732681	26.967699	254.515228	34.039005	-79.757202	33.863319	-78.654572	42.903172	-58.841866	42.462246	-58.328285	
825.675293	27.742567	255.055145	27.388990	255.360870	34.633240	-79.138901	34.470551	-78.397560	43.534733	-58.985634	43.237232	-58.340561	
827.255066	28.093870	256.124603	27.817921	256.166870	35.377800	-79.037987	35.092567	-78.169739	44.400520	-59.123840	44.043747	-58.356262	
828.834839	28.543083	256.962158	28.255123	256.934082	35.932259	-78.772408	35.731071	-77.970581	45.282146	-58.966400	44.884525	-58.372444	
830.414673	29.101631	257.379333	28.701117	257.663147	36.708069	-78.714897	36.387669	-77.799561	46.196056	-58.773006	45.762135	-58.385563	
831.994263	29.493660	258.352325	29.156424	258.354462	37.308056	-78.642113	37.063938	-77.656250	46.982841	-59.137115	46.679020	-58.391579	
833.573608	29.974724	259.106812	29.621668	259.008362	38.005005	-77.943718	37.761604	-77.540215	47.889278	-59.105072	47.637695	-58.385818	
835.152954	30.490076	259.483398	30.097551	259.625305	38.630726	-78.516945	38.482582	-77.450912	49.130253	-59.132050	48.640793	-58.362686	
836.732056	30.838486	259.831390	30.584784	260.205750	39.641556	-78.338524	39.228806	-77.387749	50.069298	-58.587467	49.690777	-58.315578	
838.311340	31.383707	260.476135	31.084293	260.750000	40.319435	-78.437752	40.002533	-77.350220	51.216980	-58.702637	50.790283	-58.236843	
839.890442	32.031967	260.719788	31.596813	261.258179	41.007771	-78.205872	40.805740	-77.337730	52.332436	-58.536922	51.941200	-58.117367	
841.469849	32.487251	261.239380	32.123390	261.730713	41.772709	-78.236397	41.640949	-77.349548	53.553253	-58.492622	53.145771	-57.946075	
843.048828	32.942360	262.143188	32.664757	262.167542	42.726543	-78.392548	42.510166	-77.384895	54.855408	-57.948238	54.404892	-57.709972	
844.627930	33.387955	262.493042	33.222099	262.568817	43.707310	-78.517822	43.416080	-77.443039	56.116104	-57.757465	55.719753	-57.393360	
846.206726	34.170139	262.550568	33.796371	262.934540	44.489437	-78.422729	44.361050	-77.523003	57.629402	-57.257721	57.090168	-56.977215	
847.785522	34.641861	262.623474	34.388866	263.264893	45.495327	-79.053650	45.347961	-77.623703	58.995392	-56.891964	58.515621	-56.438049	
849.363953	35.396271	262.980103	35.000668	263.559723	46.373959	-78.823578	46.379292	-77.743996	60.420959	-55.657772	59.993633	-55.747478	
850.942383	36.033607	263.477661	35.633228	263.818909	47.691544	-78.757263	47.458057	-77.882637	62.042927	-55.121746	61.520798	-54.870052	
852.521362	36.563400	263.019257	36.288193	264.042480	48.709682	-78.585449	48.587578	-78.038139	63.553448	-53.765293	63.092014	-53.760910	
854.099792	37.195065	263.639221	36.966564	264.229980	50.030754	-79.086723	49.769947	-78.208633	65.001442	-51.870590	64.697815	-52.365211	
855.677551	37.921066	263.612671	37.669830	264.381165	51.262760	-79.226318	51.007874	-78.392220	66.955521	-50.042805	66.326355	-50.613674	
857.256470	38.653690	263.833008	38.400455	264.495697	52.654781	-79.445427	52.305645	-78.586868	68.539268	-48.056641	67.963577	-48.416138	
858.833984	39.605083	263.799927	39.158974	264.572998	53.922005	-80.095711	53.663883	-78.789490	70.080124	-45.229614	69.585365	-45.666241	
860.412598	40.435810	264.021210	39.948338	264.612579	55.451561	-79.481415	55.087200	-78.997223	71.456429	-40.744080	71.165611	-42.225769	
861.990417	41.148190	263.719910	40.769466	264.613556	56.879292	-79.847176	56.576141	-79.206177	72.953682	-35.627991	72.664925	-37.943115	
863.568054	41.897636	263.815430	41.624569	264.575134	58.314411	-81.020927	58.133152	-79.411842	74.331070	-30.445778	74.035797	-32.653748	
865.146118	42.804478	263.655426	42.516010	264.496216	59.947784	-80.846527	59.760445	-79.608582	75.262627	-23.893398	75.219246	-26.220095	
866.723755	43.792404	263.766632	43.445415	264.375549	61.631390	-80.995163	61.458214	-79.789291	76.220795	-16.378178	76.146408	-18.609394	
868.301758	44.750427	263.336639	44.415321	264.211548	63.689770	-80.894890	63.227558	-79.945206	76.690910	-6.738877	76.749435	-9.975275	
869.878784	45.806026	262.953522	45.427017	264.002441	65.556358	-81.056656	65.066521	-80.064369	76.866547	2.233934	76.975571	-0.735147	
871.456665	46.888824	262.666107	46.483829	263.745941	67.156685	-80.724243	66.975929	-80.130882	76.490013	10.761051	76.806023	8.518968	
873.034058	48.132732	262.337006	47.587151	263.439484	68.901871	-82.044823	68.952034	-80.122620	76.027122	19.601044	76.262932	17.175486	
874.611145	49.180202	261.884949	48.739025	263.079803	71.374008	-81.201195	70.991203	-80.007874	74.920555	26.956541	75.401627	24.820614	
876.188293	50.420662	261.391174	49.941837	262.662994	73.455879	-80.795448	73.089149	-79.738121	73.552299	32.781445	74.291786	31.295998	
877.765503	51.622128	261.593475	51.197510	262.184357	75.472054	-80.153206	75.239372	-79.235771	72.357216	37.893589	73.002182	36.634335	
879.342163	53.065735	260.236755	52.507183	261.638306	77.752380	-78.963890	77.432289	-78.369125	70.798012	41.960224	71.592751	40.967007	
880.919556	54.412487	259.495667	53.873344	261.017151	80.221222	-77.558266	79.657944	-76.891113	69.221626	44.752659	70.109718	44.460464	
882.496277	55.775986	258.713593	55.296005	260.312622	82.276497	-75.143227	81.897003	-74.284523	68.042908	47.829491	68.590424	47.267090	
884.073059	57.314323	258.005249	56.776329	259.513611	84.506546	-73.509537	84.117874	-69.261505	66.542793	49.569164	67.061401	49.521793	
885.649780	58.714970	257.346985	58.314285	258.606201	86.792229	-57.688759	86.232689	-57.737530	64.906265	50.991333	65.542770	51.333908	
887.226379	60.387615	257.277283	59.908871	257.572876	87.991379	-10.999838	87.839561	-23.609365	63.407314	53.046791	64.049385	52.790825	
888.802856	61.974583	254.905624	61.558693	256.390961	87.505211	49.906712	87.538826	36.091946	62.109818	54.006866	62.591358	53.962189	
890.379211	63.536697	253.564590	63.261169	255.030945	85.396652	63.928699	85.732666	61.471180	60.689579	55.011433	61.175735	54.903027	
891.955444	65.633331	251.650513	65.012177	253.453751	83.230309	71.295006	83.613007	70.554337	59.108440	55.398411	59.807262	55.657089	
893.531433	67.441849	249.278015	66.805466	251.607285	80.785843	74.764473	81.438072	74.751495	58.126328	55.930588	58.489029	56.259262	
895.107788	69.352509	247.618301	68.633377	249.419891	78.826431	77.690765	79.270233	77.004745	56.609600	56.559254	57.221992	56.737648	
896.683899	71.108246	244.811386	70.483406	246.794662	76.751762	79.361984	77.135689	78.308418	55.603420	57.070152	56.007164	57.114544	
898.259766	72.635078	239.183594	72.339310	243.594360	74.436333	79.686829	75.048134	79.084412	54.455200	57.245037	54.844158	57.408470	
899.835266	74.395477	236.762985	74.177811	239.625015	72.722626	80.379692	73.016800	79.540413	53.435513	57.200130	53.732243	57.634575	
901.411011	76.274551	230.169571	75.967064	234.607788	70.719818	79.393158	71.046677	79.790245	52.395935	57.388916	52.669430	57.805378	
902.987122	78.212013	223.837128	77.659157	228.154770	68.714745	79.148087	69.141731	79.901283	51.179199	57.163773	51.653908	57.931114	
904.562134	79.025284	213.332413	79.181442	219.771393	67.308548	79.685646	67.306244	79.916374	50.384853	57.646408	50.684563	58.020317	
906.138000	80.740318	204.484055	80.432495	208.930435	65.292442	80.182381	65.539436	79.864197	49.660557	57.706249	49.758110	58.080353	
907.713379	81.724976	190.711166	81.276947	195.467102	63.544548	79.575035	63.843498	79.764366	48.807037	57.686050	48.873234	58.117153	
909.288269	81.168419	174.861954	81.584465	180.165451	61.728642	79.547188	62.218189	79.630829	47.988567	57.532169	48.027740	58.135723	
910.863892	80.909866	160.126907	81.299843	164.874054	60.470760	79.658516	60.661491	79.473892	47.227119	57.650745	47.218861	58.140347	
912.438965	79.737930	149.345215	80.485992	151.453629	58.931362	79.029366	59.173302	79.301628	46.228127	57.440136	46.445141	58.134701	
914.013489	78.322495	139.962952	79.278793	140.665237	57.686207	79.420532	57.751846	79.120110	45.739693	57.590439	45.704517	58.121864	
915.588684	77.009270	130.183960	77.812706	132.316360	56.157852	78.348778	56.393761	78.933739	44.735657	57.525124	44.994328	58.104362	
917.163208	75.354736	124.764267	76.191803	125.896896	54.866718	79.127304	55.097839	78.746399	44.220657	57.462036	44.313240	58.084404	
918.737671	74.016930	119.101692	74.485611	120.904297	53.889305	78.508492	53.861038	78.561096	43.526756	57.594723	43.659142	58.063889	
920.312805	72.271324	115.937607	72.740021	116.952675	52.937408	78.355301	52.680359	78.380234	42.968952	57.506855	43.030067	58.044418	
921.887207	70.196732	114.177803	70.987419	113.768822	51.309624	78.451851	51.554001	78.205833	42.286041	57.954128	42.424805	58.027302	
923.461426	68.962456	111.945557	69.248276	111.157089	50.332569	77.721581	50.478844	78.039398	41.947453	57.471695	41.841530	58.013626	
925.035522	67.215286	108.426979	67.536972	108.980690	49.425087	78.263924	49.452168	77.882286	41.141487	57.532455	41.278725	58.004368	
926.610229	65.458916	106.664948	65.862869	107.141495	48.500866	77.686707	48.470985	77.735603	40.725769	57.412960	40.734764	58.000362	
928.183960	63.352600	106.528862	64.234535	105.570290	47.685467	76.975197	47.533684	77.600349	40.151020	57.355610	40.208836	58.002247	
929.758301	62.488338	104.091339	62.654949	104.213020	46.695404	77.316338	46.636829	77.477043	39.503830	57.730396	39.699135	58.010521	
931.332214	61.414696	103.789070	61.128071	103.031464	45.835091	77.949600	45.778614	77.366364	39.287815	57.893074	39.204800	58.025627	
932.905945	59.545582	101.592987	59.655407	101.995766	45.161266	77.000877	44.956673	77.268845	38.749138	57.476601	38.724670	58.047974	
934.479370	57.880199	101.643768	58.237759	101.082939	44.423000	76.609825	44.168873	77.184891	38.448219	57.326092	38.257740	58.077843	
936.053223	57.159824	99.565010	56.874474	100.274437	43.519993	77.370758	43.412796	77.114708	37.734715	58.252632	37.802803	58.115433	
937.626648	55.593609	99.313118	55.565620	99.556366	42.463909	77.259315	42.686840	77.058533	37.388290	58.026100	37.359158	58.160866	
939.199707	54.111526	99.080177	54.310150	98.917313	42.230591	76.682747	41.989147	77.016579	37.171497	57.889149	36.925945	58.214279	
940.773071	52.314442	96.988808	53.106186	98.347832	41.420422	76.957298	41.317688	76.988998	36.440376	57.708054	36.502186	58.275818	
942.346558	51.390831	97.244934	51.952225	97.840355	40.491005	76.976662	40.670841	76.975845	35.894608	58.224567	36.087132	58.345490	
943.919739	49.613213	98.588715	50.846909	97.388702	40.122475	76.713440	40.047264	76.977112	35.589886	58.185806	35.680202	58.423233	
945.492371	49.015297	96.373108	49.788414	96.987686	39.142464	75.970497	39.445515	76.992790	35.069302	58.348232	35.280758	58.509026	
947.065125	47.266644	96.112900	48.774471	96.632851	38.493103	77.314941	38.864040	77.022926	34.599430	58.116127	34.888046	58.602875	
948.638062	46.635715	96.807838	47.803089	96.320526	37.936993	77.259682	38.301521	77.067474	34.107685	58.365509	34.501469	58.704735	
950.211243	46.337200	95.958389	46.872223	96.047478	37.220974	77.155464	37.756683	77.126350	33.819370	58.979774	34.120426	58.814495	
951.783691	45.489815	95.173431	45.980396	95.811111	37.094265	77.481476	37.228653	77.199425	33.567509	58.507813	33.744572	58.931988	
953.356262	43.916878	95.215645	45.125244	95.608978	36.702900	77.517525	36.716087	77.286659	32.967163	58.852146	33.373241	59.057175	
954.928101	43.164158	95.507568	44.305336	95.439224	35.901791	77.370529	36.218254	77.387947	32.760250	58.908806	33.006161	59.189911	
956.500793	42.664005	94.836868	43.518108	95.299889	35.264099	78.003372	35.733730	77.503265	32.302002	59.189365	32.642544	59.330177	
958.072754	41.923183	93.918060	42.762531	95.189461	35.045818	78.244026	35.262054	77.632355	31.975422	59.316555	32.282303	59.477665	
959.645386	41.216663	95.205070	42.036282	95.106468	34.494492	77.447166	34.801979	77.775208	31.660091	59.607273	31.924723	59.632351	
961.217163	40.310253	94.421860	41.338501	95.049789	34.174004	77.673965	34.353195	77.931572	31.241039	59.659618	31.569811	59.793953	
962.788940	40.148674	94.740829	40.667286	95.018318	33.643768	77.973259	33.914734	78.101448	31.067274	59.563580	31.217037	59.962433	
964.360657	39.597462	94.874214	40.021198	95.011009	33.139050	78.276474	33.485905	78.284676	30.617558	59.739769	30.866076	60.137589	
965.932251	38.894077	95.318115	39.398838	95.026932	32.876003	78.313850	33.066040	78.481087	30.403151	60.158390	30.516602	60.319218	
967.503601	38.312603	94.368896	38.798935	95.065262	32.352116	78.767181	32.654556	78.690575	29.973936	60.111633	30.168344	60.507149	
969.075562	37.967445	94.618004	38.219982	95.125328	32.164501	78.619873	32.250702	78.913162	29.577801	60.407417	29.820873	60.701344	
970.646606	37.231792	94.645851	37.661396	95.206421	31.606007	79.241997	31.854357	79.148521	29.238224	60.727737	29.474283	60.901447	
972.218079	36.953568	95.356285	37.121521	95.307915	31.196281	79.167847	31.464619	79.396736	28.951744	60.397068	29.127985	61.107426	
973.788574	36.257374	95.453629	36.599792	95.429115	31.023508	79.926743	31.081364	79.657448	28.522928	61.220970	28.782059	61.318878	
975.359558	35.846664	95.256744	36.094742	95.569603	30.451075	79.847824	30.703798	79.930786	28.177467	61.315308	28.435972	61.535820	
976.931030	35.178349	95.320786	35.605515	95.728920	30.357809	80.052498	30.331556	80.216713	28.044424	61.071438	28.089558	61.758102	
978.501343	34.916893	95.861687	35.131748	95.906433	29.500254	80.605278	29.964649	80.514824	27.410759	62.272045	27.743000	61.985298	
980.072144	34.441467	95.500534	34.672062	96.101868	29.350994	80.886887	29.602272	80.825348	27.179556	61.646759	27.395706	62.217430	
981.643250	33.828800	96.222206	34.225723	96.314804	29.012659	81.020515	29.244112	81.148178	26.984158	61.823265	27.047529	62.454258	
983.213196	33.421032	96.640953	33.792408	96.544670	28.806538	81.450729	28.890177	81.482964	26.581264	62.171608	26.698631	62.695389	
984.783508	33.144985	96.127457	33.371002	96.791382	28.458971	81.799820	28.539824	81.830048	26.123573	62.642433	26.348522	62.940910	
986.354126	33.041843	96.431526	32.960899	97.054626	27.955584	82.219330	28.192793	82.189377	25.744650	62.505840	25.997078	63.190624	
987.924194	32.405411	97.721115	32.561687	97.333908	27.496424	82.696251	27.848984	82.560699	25.463928	63.142506	25.644337	63.444134	
989.494629	31.792902	96.838379	32.172588	97.629059	27.291477	82.837799	27.507971	82.944153	25.180059	63.111408	25.289993	63.701332	
991.064453	31.645401	97.439400	31.793291	97.939651	26.934811	82.772911	27.169720	83.339539	24.790138	63.303967	24.934141	63.961868	
992.633667	31.040302	98.070480	31.423313	98.265442	26.672716	84.083778	26.834044	83.746872	24.400236	63.462318	24.576700	64.225571	
994.203918	30.910578	98.589348	31.061821	98.606522	26.555265	84.172592	26.500414	84.166580	24.049761	64.065819	24.217218	64.492485	
995.773560	30.641794	98.437119	30.708700	98.962318	26.077650	84.578903	26.168941	84.598267	23.681025	63.515453	23.855936	64.762070	
997.342590	30.072271	99.342171	30.363512	99.332588	25.751282	84.639740	25.839436	85.041939	23.479742	63.814137	23.492758	65.034065	
998.912476	30.097855	99.637901	30.025555	99.717506	25.374689	85.133881	25.511438	85.498093	22.945515	64.644615	23.127277	65.308487	
1012.272156	26.566401	104.731133	27.404167	103.554871	21.961288	91.412811	22.771053	89.889992	19.028625	68.077072	19.924889	67.699127	
1015.750671	25.698765	104.832748	26.783730	104.713280	21.246511	92.211601	22.067698	91.190880	18.001139	68.397247	19.062166	68.323456	
1019.228027	25.417881	106.929642	26.184763	105.935112	20.630119	94.399925	21.367506	92.561234	17.227612	69.280060	18.187654	68.940758	
1022.703979	24.943661	108.032722	25.605433	107.219528	19.958260	95.625175	20.670053	94.004257	16.323339	69.311447	17.301470	69.545753	
1026.178345	24.456554	109.421883	25.044334	108.565880	19.303938	97.009201	19.975277	95.523949	15.529892	70.160675	16.404026	70.132706	
1029.650635	23.942844	110.911331	24.500311	109.973610	18.608944	98.369011	19.283321	97.124977	14.601315	70.418221	15.495911	70.694763	
1033.122314	23.379074	112.424988	23.971989	111.443115	17.957340	100.241653	18.593983	98.813675	13.748877	70.860786	14.577215	71.223457	
1036.592529	23.080545	114.680000	23.458841	112.973907	17.278851	102.209419	17.908028	100.596405	12.730602	71.041862	13.649067	71.708748	
1040.060791	22.354996	115.462227	22.960155	114.565788	16.626547	103.715714	17.226019	102.480583	11.869220	71.636833	12.712369	72.136993	
1043.527710	21.954731	117.132568	22.475397	116.219246	15.913604	106.216011	16.548695	104.475761	10.815195	72.046326	11.768006	72.491562	
1046.993896	21.628683	119.018494	22.004166	117.934837	15.341308	107.995888	15.876994	106.592941	9.976528	72.219139	10.817012	72.750061	
1050.457520	21.060482	120.928200	21.546452	119.711754	14.647198	110.911774	15.212510	108.842751	9.020892	71.866173	9.861322	72.880951	
1053.920776	20.611242	122.533989	21.102011	121.551476	14.060795	113.061203	14.556504	111.240753	8.142264	72.052620	8.902049	72.841583	
1057.382568	20.140263	124.264931	20.670921	123.453682	13.388201	115.768303	13.910927	113.801903	7.106301	71.190376	7.941437	72.567413	
1060.842773	19.883486	126.543533	20.253378	125.418533	12.787257	118.094780	13.278024	116.543976	6.282469	70.074425	6.982074	71.961212	
1064.301880	19.438044	128.615234	19.849621	127.446510	12.207803	121.682991	12.660323	119.487534	5.271331	68.163124	6.027210	70.866989	
1067.758789	19.055944	130.638229	19.459957	129.537094	11.653472	124.574516	12.060823	122.653610	4.447196	65.296371	5.082019	69.016235	
1071.215088	18.746088	133.214355	19.084715	131.691238	11.135805	128.847778	11.482802	126.067734	3.478578	60.609169	4.154320	65.916420	
1074.670532	18.329350	135.055191	18.724335	133.908585	10.596850	131.898651	10.930190	129.754715	2.684876	53.717430	3.259999	60.573353	
1078.124023	18.032982	137.425110	18.379406	136.187805	10.074924	136.715378	10.407615	133.737885	1.934300	36.168468	2.435449	50.805565	
1081.577026	17.715361	139.579453	18.050488	138.529007	9.664184	140.571396	9.920061	138.041656	1.514123	11.358809	1.775445	31.914885	
1085.027588	17.391138	142.226608	17.738226	140.929749	9.283205	145.864227	9.473211	142.681305	1.738347	-23.514280	1.505269	-0.184770	
1088.478271	17.186668	144.523834	17.443027	143.390274	8.859896	150.173111	9.072742	147.669617	2.216762	-42.856716	1.799218	-31.561052	
1091.927002	16.988356	147.290527	17.165785	145.907166	8.641791	156.097458	8.725204	152.999817	3.014962	-55.660835	2.454117	-49.626427	
1095.374390	16.573128	149.722000	16.906956	148.478271	8.431734	161.611343	8.436503	158.650635	3.761691	-61.892849	3.251384	-59.003647	
1098.821289	16.439657	152.480972	16.667168	151.101273	8.197633	167.739578	8.212253	164.580200	4.666290	-66.210678	4.102031	-64.186577	
1102.266357	16.093960	154.756668	16.447130	153.771530	8.060296	173.557602	8.057115	170.719681	5.491302	-68.159698	4.972029	-67.234978	
1105.710327	15.987283	157.982269	16.247234	156.485474	8.049797	179.971283	7.973899	176.983856	6.430014	-69.790413	5.846958	-69.091354	
1109.153198	15.859953	160.649780	16.068089	159.238251	8.043360	185.778259	7.963741	183.272202	7.213297	-70.437759	6.719298	-70.227806	
1112.595581	15.696539	163.343170	15.910068	162.025070	8.130929	192.195160	8.025489	189.482635	8.118970	-70.776436	7.584992	-70.901016	
1116.036255	15.640524	166.131500	15.773506	164.839157	8.335181	197.366577	8.155846	195.517761	8.868192	-71.311577	8.441083	-71.260895	
1119.476074	15.446141	169.000015	15.658740	167.674881	8.557444	203.195557	8.350058	201.300247	9.781706	-71.300087	9.285947	-71.402390	
1122.914795	15.334997	171.696945	15.565891	170.525452	8.735398	208.245911	8.601987	206.773499	10.498774	-71.638321	10.118287	-71.386429	
1126.352173	15.321150	174.686783	15.494967	173.383743	9.150481	213.426666	8.904858	211.903778	11.388981	-71.253426	10.937137	-71.254509	
1129.788086	15.390491	177.418686	15.446031	176.242691	9.426763	217.895309	9.251938	216.677490	12.119482	-71.092545	11.741826	-71.036781	
1133.224243	15.272785	180.470230	15.418844	179.096512	9.880515	222.183380	9.636752	221.099579	12.951667	-70.799171	12.532256	-70.754021	
1136.658447	15.279222	183.046738	15.413113	181.936447	10.287521	225.730682	10.052922	225.181381	13.661294	-70.319183	13.307618	-70.421974	
1140.091553	15.377953	186.198471	15.428568	184.756516	10.748879	229.487289	10.495174	228.944672	14.458005	-69.898010	14.067970	-70.053078	
1143.524292	15.424523	188.624115	15.464695	187.550629	11.145060	233.134750	10.958702	232.414551	15.147379	-69.665680	14.813337	-69.656235	
1146.955566	15.523701	191.687683	15.520873	190.311508	11.653959	236.204819	11.439069	235.615295	15.893305	-69.380623	15.543386	-69.238670	
1150.385986	15.609879	193.899933	15.596561	193.033661	12.071355	238.860764	11.932795	238.572083	16.566669	-68.725227	16.258278	-68.806534	
1153.815674	15.780434	196.839539	15.691013	195.712021	12.648738	241.441101	12.436789	241.308990	17.295017	-68.277130	16.958168	-68.364296	
1157.244385	15.795979	199.121475	15.803404	198.341965	13.133190	243.650345	12.948393	243.848083	17.897863	-68.108147	17.643227	-67.915558	
1160.672607	15.949070	201.993286	15.933043	200.920090	13.733604	245.969589	13.465621	246.209503	18.620760	-67.555138	18.313900	-67.463638	
1164.099487	16.049860	204.222809	16.079042	203.442062	14.134157	248.204330	13.986444	248.410172	19.252365	-67.115189	18.970240	-67.011238	
1167.524658	16.299646	206.962189	16.240440	205.904938	14.725725	250.655121	14.509211	250.466003	19.896263	-66.707321	19.612507	-66.560326	
1170.950195	16.496080	209.099930	16.416515	208.307785	15.212604	252.342041	15.032964	252.391815	20.483082	-66.301575	20.241432	-66.112648	
1174.373657	16.672358	211.365189	16.606310	210.647171	15.808764	253.903809	15.556298	254.198410	21.184914	-65.741760	20.856983	-65.670174	
1177.796997	16.860397	213.654037	16.808994	212.923477	16.212208	255.701370	16.078598	255.898041	21.728567	-65.314453	21.459955	-65.233673	
1181.220093	17.140215	215.938812	17.023752	215.135880	16.785233	257.115082	16.599155	257.499969	22.377659	-64.777100	22.050787	-64.804359	
1184.641724	17.315344	218.034973	17.249758	217.283020	17.321135	258.651276	17.117228	259.011627	22.893423	-64.445015	22.629726	-64.383575	
1188.062744	17.608742	220.020721	17.486212	219.365814	17.825825	260.138245	17.632471	260.441193	23.491791	-64.071350	23.197445	-63.971764	
1191.482788	17.853285	221.854355	17.732346	221.384491	18.318359	261.445435	18.144499	261.795044	24.004965	-63.803802	23.754419	-63.569641	
1194.902100	18.025715	224.125458	17.987543	223.339661	18.839705	262.645996	18.653139	263.078705	24.591343	-63.300022	24.301229	-63.178009	
1198.320068	18.381428	225.651459	18.251062	225.231995	19.371136	263.807343	19.158117	264.297241	25.075228	-62.938633	24.838343	-62.797310	
1201.739014	18.682163	227.689377	18.522425	227.063889	19.846420	265.165680	19.659647	265.455994	25.683437	-62.546837	25.366669	-62.427643	
1205.155396	18.947502	229.220612	18.800812	228.834412	20.310329	265.921356	20.157175	266.557617	26.119684	-62.194832	25.886215	-62.069927	
1208.572266	19.150227	231.362488	19.085989	230.546555	20.870827	267.216705	20.651222	267.606628	26.648525	-61.887238	26.398087	-61.724194	
1211.987305	19.501482	233.012222	19.377199	232.200592	21.309130	268.142944	21.141459	268.605652	27.170031	-61.530315	26.902489	-61.390793	
1215.402588	19.776541	234.149536	19.674198	233.799011	21.847851	269.141418	21.628309	269.558105	27.694635	-61.229973	27.400347	-61.069771	
1218.817017	20.083157	235.703629	19.976543	235.342438	22.289568	269.978699	22.111782	-89.534019	28.138746	-60.847164	27.892094	-60.761620	
1222.231201	20.401869	237.577484	20.283915	236.832932	22.755764	-88.914833	22.592169	-88.668030	28.704546	-60.572166	28.378481	-60.466255	
1225.644043	20.730234	238.519974	20.595863	238.271454	23.230659	-88.215393	23.069502	-87.842133	29.096415	-60.351254	28.859945	-60.183876	
1229.056396	21.041582	240.114120	20.912275	239.659882	23.769632	-87.482124	23.544230	-87.054306	29.633856	-60.148304	29.337313	-59.914566	
1232.468384	21.337938	241.283371	21.232933	240.999527	24.164286	-86.813744	24.016642	-86.302948	30.029463	-59.941456	29.811226	-59.658440	
1235.879639	21.768194	242.168991	21.557568	242.291870	24.668968	-86.046158	24.486982	-85.586426	30.495224	-59.708164	30.282297	-59.415417	
1239.289795	22.031178	244.001633	21.886007	243.538147	25.153389	-85.357681	24.955559	-84.903412	31.005850	-59.333546	30.751165	-59.185524	
1242.700439	22.342712	244.876892	22.218348	244.740097	25.584982	-84.768303	25.422993	-84.252518	31.531673	-59.139458	31.218750	-58.968792	
1246.109619	22.699005	246.261429	22.554298	245.898483	26.065596	-83.983688	25.889410	-83.632820	31.974083	-58.884388	31.685497	-58.765190	
1249.518799	23.092089	247.299744	22.893892	247.014954	26.525051	-83.381760	26.355354	-83.042984	32.410629	-58.771194	32.152256	-58.574516	
1252.926514	23.344208	248.290573	23.236979	248.090149	27.007092	-82.940712	26.821066	-82.482346	32.895004	-58.683819	32.619549	-58.396797	
1256.334839	23.781834	249.079910	23.583839	249.125793	27.458105	-82.397064	27.287333	-81.949776	33.402279	-58.266651	33.088432	-58.231884	
1259.742676	24.044346	250.300934	23.934343	250.122726	27.974731	-82.131630	27.754438	-81.444496	33.818531	-58.334469	33.559490	-58.079559	
1263.149658	24.442015	251.075928	24.288544	251.081940	28.442734	-81.464745	28.222862	-80.965744	34.246319	-58.408562	34.033474	-57.939621	
1266.555908	24.756138	252.208008	24.646576	252.004349	28.882465	-81.039124	28.693159	-80.512878	34.741394	-58.150997	34.511196	-57.811924	
1269.962158	25.184347	253.025055	25.008709	252.891144	29.305733	-80.528793	29.166042	-80.085144	35.300346	-57.984722	34.993645	-57.696205	
1273.367310	25.549749	253.636917	25.374874	253.742859	29.862999	-80.280052	29.641825	-79.681999	35.706409	-57.875408	35.481403	-57.592110	
1276.772339	25.884676	254.605667	25.745388	254.560669	30.329645	-79.882591	30.121273	-79.302704	36.243340	-57.671238	35.975513	-57.499256	
1280.178467	26.144659	255.767883	26.120609	255.345490	30.655912	-79.478180	30.605169	-78.946732	36.606300	-57.766373	36.477020	-57.417332	
1283.582764	26.588299	256.216827	26.500475	256.097412	31.210951	-79.178230	31.093781	-78.613831	37.167267	-57.613747	36.986443	-57.345947	
1286.986572	27.000814	256.921478	26.885328	256.817505	31.873081	-78.610512	31.587906	-78.303268	37.736912	-57.546806	37.504871	-57.284496	
1290.389771	27.556561	257.854218	27.275446	257.506409	32.359905	-78.240662	32.088230	-78.014587	38.306030	-57.448753	38.033260	-57.232426	
1293.793335	27.886932	258.110352	27.671333	258.164917	32.770779	-78.439590	32.595703	-77.747330	38.746098	-57.607086	38.572826	-57.189194	
1297.196045	28.205980	258.883514	28.073137	258.793335	33.284767	-77.777336	33.110840	-77.501129	39.442924	-57.401814	39.124359	-57.154083	
1300.598877	28.707172	259.642242	28.481314	259.392456	33.790859	-77.866837	33.634563	-77.275391	39.884125	-57.534851	39.689064	-57.126221	
1304.001709	29.030582	259.776978	28.896231	259.962769	34.286152	-77.527199	34.167660	-77.069717	40.442158	-57.205727	40.268002	-57.104729	
1307.403076	29.553497	260.351563	29.318182	260.504425	34.923489	-77.375305	34.710796	-76.883850	41.146317	-57.270386	40.862080	-57.088734	
1310.805786	29.956833	261.035583	29.747906	261.018311	35.395226	-77.384537	35.265247	-76.717194	41.676571	-57.252281	41.472874	-57.077076	
1314.206665	30.446558	261.344635	30.185461	261.504456	36.106384	-76.849953	35.831413	-76.569374	42.494888	-57.355679	42.101002	-57.068451	
1317.608521	30.951277	261.751465	30.631695	261.963623	36.578094	-76.731163	36.410702	-76.439842	42.931217	-57.467281	42.748161	-57.061462	
1321.009521	31.395365	262.252502	31.086941	262.395844	37.177650	-76.790970	37.003834	-76.328316	43.761688	-57.442455	43.415257	-57.054653	
1324.409912	31.732611	263.032135	31.551748	262.801483	37.729507	-76.766144	37.611828	-76.234299	44.356720	-57.346500	44.103519	-57.046272	
1327.810791	32.314362	262.992218	32.026806	263.181030	38.334000	-76.793816	38.235912	-76.157204	45.058784	-57.520470	44.814384	-57.034260	
1331.212036	32.591110	263.633759	32.512737	263.534760	39.046009	-76.635826	38.877213	-76.096519	45.743164	-57.402634	45.549114	-57.016403	
1334.612061	33.336678	264.157104	33.009964	263.862671	39.651142	-76.801544	39.536549	-76.051834	46.617851	-57.229656	46.308578	-56.990322	
1338.011963	33.808716	264.018951	33.519341	264.165039	40.338428	-76.456245	40.215343	-76.022606	47.383919	-57.399803	47.094265	-56.953270	
1341.412109	34.242790	264.518311	34.041538	264.442230	41.151840	-76.582886	40.914799	-76.008110	48.076862	-57.166679	47.907349	-56.901966	
1344.811890	35.081070	264.534729	34.577229	264.694305	41.843849	-76.233986	41.636078	-76.007721	49.013920	-57.121868	48.748852	-56.832840	
1348.211548	35.215622	264.933044	35.127197	264.921387	42.548687	-76.658524	42.380493	-76.020790	49.799061	-56.981071	49.619850	-56.741905	
1351.610596	35.887074	265.151123	35.692211	265.123474	43.344269	-76.603333	43.149292	-76.046692	50.777058	-56.918106	50.521217	-56.624733	
1355.010498	36.483311	265.353973	36.273281	265.300781	44.062286	-76.778305	43.944099	-76.084511	51.631470	-56.896442	51.454105	-56.475903	
1358.409912	36.982979	265.553833	36.871029	265.453339	44.904121	-76.931671	44.765968	-76.133331	52.704193	-56.770451	52.418804	-56.289486	
1361.809814	37.642345	265.426819	37.486565	265.581146	45.719971	-77.178078	45.616581	-76.192245	53.621220	-56.509335	53.416103	-56.058609	
1365.208740	38.232071	265.165619	38.120617	265.683960	46.801582	-76.553452	46.497047	-76.260361	54.491211	-55.923347	54.445877	-55.775707	
1368.608154	38.997841	265.558624	38.774315	265.761841	47.520699	-77.205948	47.409035	-76.336456	55.647224	-55.814449	55.508312	-55.431561	
1372.007690	39.785347	266.051178	39.448620	265.814697	48.284554	-76.754135	48.353912	-76.419182	56.849735	-55.422188	56.602886	-55.015602	
1375.407471	40.524448	265.882019	40.144539	265.842316	49.420212	-76.678757	49.333057	-76.507126	57.931595	-55.237667	57.728626	-54.515671	
1378.807373	40.958248	265.453613	40.863106	265.844360	50.340420	-76.898521	50.347809	-76.598801	59.177212	-54.272610	58.884041	-53.917732	
1382.205444	42.322876	265.588989	41.605049	265.820465	51.504051	-77.627541	51.398979	-76.692497	60.435848	-53.618633	60.066448	-53.205719	
1385.604858	43.087189	265.689789	42.372044	265.770325	52.589329	-77.651321	52.488670	-76.786095	61.744637	-52.503311	61.273872	-52.359432	
1389.005615	43.364933	265.002777	43.165226	265.693451	53.448349	-77.571892	53.618088	-76.877281	62.747746	-51.497944	62.502499	-51.355888	
1392.404175	44.022102	265.877686	43.984943	265.589325	55.006779	-77.719810	54.787170	-76.963348	63.966320	-49.875278	63.746185	-50.169327	
1395.803833	45.304760	264.121216	44.833076	265.456970	56.217442	-77.714050	55.997921	-77.041542	65.444557	-49.208664	64.999886	-48.767502	
1399.204346	45.917610	265.107574	45.710732	265.295624	57.162426	-78.020988	57.251060	-77.108170	66.730659	-46.978447	66.255714	-47.113274	
1402.603882	46.830830	264.834106	46.618546	265.104431	58.628284	-78.379456	58.546467	-77.158852	67.853821	-45.541340	67.503326	-45.164566	
1406.004150	47.739105	264.641205	47.558010	264.882080	60.144474	-78.219398	59.885025	-77.188560	69.121780	-42.610718	68.731422	-42.871601	
1409.404785	48.916748	264.436584	48.530178	264.627075	61.349937	-77.882233	61.266766	-77.191254	69.912079	-39.963821	69.925613	-40.179718	
1412.804321	50.183201	263.587769	49.535606	264.337738	62.907284	-77.234482	62.690784	-77.159706	71.473938	-36.977959	71.068161	-37.032219	
1416.205811	50.622406	263.884064	50.576157	264.011902	64.278206	-77.619232	64.157730	-77.084312	72.352562	-33.150192	72.139565	-33.367962	
1419.605713	51.911297	264.085815	51.651611	263.647522	65.499619	-77.386986	65.665039	-76.953293	73.516914	-28.423786	73.115074	-29.141195	
1423.007202	53.052032	262.736511	52.763763	263.241394	67.462921	-77.804321	67.212646	-76.751343	74.364243	-23.947519	73.969284	-24.319252	
1426.408813	54.229176	261.684113	53.912769	262.790070	68.738159	-77.167427	68.797874	-76.458778	74.607719	-17.450222	74.674042	-18.912674	
1429.810181	55.724293	261.525574	55.099068	262.289307	70.573975	-78.173988	70.418030	-76.048996	75.822937	-12.112063	75.202560	-12.985147	
1433.211182	56.781864	262.480835	56.322811	261.734436	72.429657	-77.082085	72.069550	-75.484642	75.789497	-4.892201	75.532196	-6.666344	
1436.613525	58.016632	259.672363	57.584576	261.119141	73.687172	-75.787506	73.748886	-74.712715	75.580872	1.260889	75.648621	-0.143531	
1440.015259	59.070408	260.011932	58.883526	260.436310	75.754128	-74.667885	75.449760	-73.656013	75.667015	8.399322	75.548393	6.355019	
1443.417969	60.194843	258.953094	60.219734	259.676361	77.450241	-74.915733	77.165901	-72.195663	75.066437	13.911528	75.240089	12.612087	
1446.821655	61.831764	256.926361	61.592293	258.827942	79.150146	-71.183403	78.887558	-70.140480	74.699081	20.274874	74.742279	18.449703	
1450.224487	63.150642	256.619049	62.999001	257.877808	81.044899	-70.477989	80.599228	-67.166336	74.136009	25.801113	74.080666	23.750099	
1453.628174	64.683815	256.408966	64.438614	256.807861	82.916336	-65.504356	82.278038	-62.682159	73.147583	30.619535	73.283325	28.466133	
1457.032227	66.469521	254.054901	65.908455	255.595795	84.380539	-57.144806	83.879524	-55.542728	72.324043	33.962215	72.378357	32.598484	
1460.436890	67.977432	253.217636	67.405273	254.212357	85.699936	-43.411057	85.308640	-43.454422	71.108971	37.668674	71.391525	36.182072	
1463.840210	69.180344	250.712891	68.923874	252.620789	86.968971	-22.417391	86.346382	-22.647558	70.291946	40.871338	70.345871	39.267235	
1467.245483	71.019234	249.422791	70.460197	250.770233	87.037163	14.032616	86.613258	6.939890	69.107071	43.368885	69.259293	41.914917	
1470.651001	72.620773	247.790833	72.006363	248.595062	86.028297	38.964375	85.962334	33.281021	68.020752	44.931408	68.147980	44.180984	
1474.056641	74.057228	244.215942	73.553062	246.005157	84.698906	56.570621	84.736702	49.589462	66.770172	47.213634	67.024651	46.118637	
1477.463867	75.516350	239.208893	75.088638	242.874664	83.206276	64.162537	83.256950	59.020493	65.505402	48.490833	65.899033	47.776031	
1480.869385	76.972992	236.414474	76.594765	239.034500	81.547241	69.276169	81.674301	64.752403	64.479530	50.277809	64.780327	49.192760	
1484.278076	78.347260	230.456329	78.050034	234.241089	79.788086	71.665062	80.051743	68.461533	63.306602	51.252098	63.673321	50.405605	
1487.684570	80.047775	225.462204	79.418449	228.179199	78.122856	73.949547	78.423485	70.979073	62.345230	52.534061	62.584736	51.442543	
1491.092529	80.518616	213.979660	80.652695	220.436539	76.522049	76.794296	76.805222	72.752892	60.998890	52.965797	61.517227	52.330151	
1494.501709	81.369316	203.562897	81.683495	210.592880	74.834175	75.720695	75.207573	74.035057	60.147964	53.938416	60.473675	53.089901	
1497.911987	81.744591	190.289383	82.421074	198.459518	73.092918	76.018372	73.637520	74.978043	59.158089	54.886799	59.456169	53.740101	
1501.321533	82.824417	177.171280	82.773041	184.524216	71.423927	77.470566	72.100883	75.677582	57.772930	54.534264	58.466774	54.295570	
1504.732056	82.346863	165.345215	82.686516	170.134766	70.056252	76.074898	70.600189	76.198471	57.180172	55.217186	57.505833	54.769802	
1508.141479	81.190613	152.387604	82.182617	156.924393	68.749336	78.198410	69.138786	76.584808	56.313210	56.070538	56.574429	55.173771	
1511.553589	80.348846	143.509216	81.342384	145.846085	67.161766	77.407707	67.716759	76.868553	55.500172	56.489407	55.671711	55.517544	
1514.966431	79.560402	133.146652	80.263260	137.022629	65.917297	79.825630	66.336052	77.072762	54.413166	56.247566	54.798122	55.809288	
1518.377930	78.310982	127.814789	79.028038	130.117966	64.768944	79.418533	64.998047	77.214325	53.677383	56.576061	53.953793	56.055862	
1521.791748	76.717453	122.739838	77.694817	124.693611	63.272297	78.056900	63.701576	77.306366	52.840031	56.263649	53.137337	56.263611	
1525.205811	75.065163	120.553886	76.304886	120.382248	62.107433	78.542328	62.447281	77.358978	52.308006	56.753105	52.348579	56.437729	
1528.620361	73.757935	116.214561	74.885902	116.901566	60.886642	78.556976	61.234837	77.380180	51.315178	57.307499	51.586800	56.582848	
1532.036865	71.525879	116.089249	73.455948	114.044685	59.763145	78.143387	60.062927	77.376549	50.481140	57.433491	50.850719	56.703171	
1535.451538	71.170776	111.029488	72.029999	111.666946	58.370098	78.603676	58.932140	77.353325	49.688950	57.622086	50.140324	56.802135	
1538.868164	69.953125	108.913673	70.616234	109.658089	57.564632	77.419037	57.840427	77.314438	49.284252	57.034878	49.453972	56.882771	
1542.286621	68.782509	106.529602	69.221672	107.940056	56.376659	77.291626	56.786854	77.263344	48.468777	56.784065	48.790798	56.947742	
1545.704834	67.135506	105.996208	67.852226	106.455666	55.543747	78.033501	55.770966	77.202965	47.959900	57.528034	48.150269	56.999386	
1549.122803	65.809616	106.467651	66.511627	105.160950	54.258598	78.696632	54.791595	77.135750	47.382374	57.574921	47.531452	57.039799	
1552.542236	64.252998	105.438316	65.201813	104.021957	53.271812	78.540230	53.847008	77.063858	46.809891	57.411293	46.933102	57.070942	
1555.963135	63.074211	100.833557	63.924759	103.012688	52.449635	77.842911	52.936001	76.988899	46.014420	57.460297	46.354332	57.094357	
1559.385498	61.204288	103.115334	62.681805	102.112717	51.391464	78.056206	52.057354	76.912270	45.432938	57.839825	45.794258	57.111412	
1562.807251	60.743919	101.039917	61.474514	101.306442	51.262878	77.684288	51.210342	76.835258	45.099419	57.128044	45.252365	57.123360	
1566.230103	59.582798	102.439171	60.302620	100.580429	50.333866	78.030937	50.393250	76.758911	44.562298	57.628422	44.727509	57.131310	
1569.654053	57.471302	100.441833	59.166222	99.924263	49.180553	77.512428	49.604851	76.684181	44.030025	57.762337	44.218876	57.136276	
1573.078979	57.278484	99.021835	58.065025	99.329529	48.643353	76.901405	48.843861	76.612000	43.628235	56.959103	43.725647	57.139221	
1576.503052	55.786823	99.338043	56.999447	98.789276	48.033924	77.595940	48.109612	76.542938	43.017883	57.385963	43.247391	57.140797	
1579.929810	55.033939	100.167267	55.967808	98.296997	46.876362	77.024719	47.400169	76.477486	42.754902	57.783318	42.782883	57.141659	
1583.357422	54.029400	98.433922	54.970028	97.848045	46.338375	77.302025	46.714817	76.416183	42.107479	57.533314	42.331676	57.142395	
1586.785645	53.520718	96.874466	54.005405	97.438286	45.745701	77.114899	46.052509	76.359474	41.870022	57.507393	41.893147	57.143536	
1590.214600	52.138874	98.229965	53.073021	97.064201	45.389179	77.881180	45.412159	76.307777	41.107143	57.855282	41.466618	57.145569	
1593.643921	51.667900	97.248260	52.171940	96.722893	44.737587	76.810989	44.792744	76.261513	41.028954	57.940758	41.051487	57.148975	
1597.075806	50.659286	98.239746	51.300800	96.411400	43.755749	77.426460	44.193001	76.220802	40.439774	57.703800	40.646957	57.154007	
1600.508057	50.063080	95.946907	50.459160	96.127647	43.036583	77.587440	43.612362	76.185890	40.123657	57.630489	40.252731	57.160965	
1603.940552	49.137806	97.342751	49.646030	95.869659	42.899796	76.762894	43.049934	76.156975	40.001637	58.080910	39.868275	57.170109	
1607.375244	48.583019	95.271301	48.859943	95.635582	42.636524	76.489029	42.504539	76.134209	39.246391	57.505009	39.492863	57.181679	
1610.810059	47.336723	95.772163	48.100380	95.424110	41.689289	75.961510	41.975700	76.117775	38.973068	57.233475	39.126244	57.195900	
1614.244873	47.426640	96.233910	47.366238	95.233978	41.493515	77.172409	41.462551	76.107887	38.473579	58.145496	38.767914	57.213009	
1617.681763	45.521217	95.447220	46.656239	95.063766	40.753063	76.084244	40.964130	76.104507	38.627289	57.548470	38.417278	57.233070	
1621.120605	45.467224	96.151749	45.969433	94.912422	40.453888	76.742729	40.479725	76.107697	37.910137	57.763901	38.073921	57.256203	
1624.559204	44.914558	95.356941	45.305336	94.779099	39.813972	77.644455	40.008980	76.117508	37.590202	57.818695	37.737679	57.282486	
1627.999512	44.175091	95.177444	44.662640	94.662865	39.276260	76.780899	39.550957	76.133995	37.167130	57.892582	37.407963	57.312023	
1631.441650	43.841831	94.747299	44.040455	94.562988	39.159401	76.981606	39.105045	76.157196	36.801331	57.893002	37.084419	57.344891	
1634.883057	43.218372	92.916611	43.438320	94.478935	38.360287	77.371750	38.670937	76.187202	36.704113	57.956535	36.766922	57.381195	
1638.326294	42.637314	96.056877	42.855022	94.409912	37.935120	77.611481	38.247799	76.223946	36.513550	57.712051	36.454929	57.420925	
1641.770874	41.822559	94.467804	42.289803	94.355331	37.363693	76.825066	37.835117	76.267403	36.002640	57.867691	36.148159	57.464085	
1645.217041	41.462582	94.278740	41.741898	94.314659	37.157833	77.293243	37.432392	76.317566	35.719166	57.767342	35.846317	57.510693	
1648.664307	40.113892	93.942276	41.210606	94.287422	36.861336	77.806801	37.039169	76.374397	35.207733	58.544144	35.549141	57.560749	
1652.112915	40.761677	94.074982	40.695183	94.273170	36.293079	76.910545	36.654964	76.437904	35.247574	57.787834	35.256348	57.614258	
1655.562866	40.094524	94.775635	40.194901	94.271614	36.385452	77.271118	36.279305	76.508133	34.779129	58.105038	34.967655	57.671291	
1659.013916	39.639694	96.188583	39.709183	94.282318	36.015488	77.672371	35.911835	76.585014	34.329391	58.683033	34.682861	57.731792	
1662.465820	38.477982	95.000992	39.237431	94.304848	35.522835	77.098961	35.552177	76.668434	34.197083	58.600857	34.401756	57.795685	
1665.918701	38.590069	94.228043	38.779041	94.338875	35.090683	76.700089	35.199951	76.758362	34.227814	57.883739	34.124115	57.862938	
1669.372681	37.860516	94.827103	38.333435	94.384087	34.706932	77.838875	34.854801	76.854736	33.721638	58.633053	33.849728	57.933514	
1672.827393	37.504021	95.076447	37.900089	94.440178	34.859768	77.504005	34.516396	76.957512	33.236729	57.993397	33.578411	58.007370	
1676.284912	37.993824	95.980667	37.478199	94.506966	33.216995	79.923279	34.184200	77.066742	33.251736	58.917187	33.309795	58.084545	
1679.743408	35.971970	98.323959	37.067516	94.584213	34.009693	76.180939	33.858097	77.182381	32.530270	59.163464	33.043854	58.165005	
1683.202393	33.690834	98.118057	36.667606	94.671577	33.338970	82.078979	33.537830	77.304268	32.174767	58.940762	32.780449	58.248608	
1686.664063	36.147236	96.507660	36.277775	94.768875	31.855122	77.783104	33.222927	77.432426	31.653971	58.832783	32.519253	58.335346	